time_us,ax,ay,az,gx,gy,gz
0,-0.687136,-1.022324,9.119514,0.209615,1.048188,-0.439434
4000,-0.763750,-1.067814,9.117120,1.308852,0.834447,-0.256228
8000,-0.758962,-1.036689,9.006987,2.148547,0.758111,0.110184
12000,-0.785298,-0.916979,9.002198,2.866104,0.483302,0.446062
16000,-0.699107,-0.859518,8.884883,2.682898,0.254295,0.858276
20000,-0.691924,-0.816423,8.655039,2.316485,-0.127385,1.148352
24000,-0.562637,-0.756568,8.681376,1.858470,-0.142652,1.148352
28000,-0.466869,-0.689530,8.492233,1.293585,0.116890,1.163620
32000,-0.378284,-0.667982,8.597578,0.682898,0.239028,0.904078
36000,-0.390255,-0.593762,8.614338,0.453890,0.803913,0.644536
40000,-0.339977,-0.629675,8.674192,0.255417,1.674142,0.293391
44000,-0.459687,-0.608127,8.714894,0.148546,2.574905,0.507131
48000,-0.538695,-0.569820,8.429984,-0.401072,2.819180,0.400261
52000,-0.598550,-0.641646,8.461109,-0.798018,2.788646,0.552933
56000,-0.567426,-0.586579,8.477868,-1.485041,2.437501,0.736139
60000,-0.577003,-0.612916,8.647857,-1.744583,1.414600,0.552933
64000,-0.507571,-0.632069,8.755595,-1.775118,0.681776,0.507131
68000,-0.478840,-0.699107,8.760384,-1.881988,0.254295,0.354459
72000,-0.533907,-0.684742,8.872911,-1.225499,-0.188453,0.262856
76000,-0.521936,-0.667982,8.829816,-0.645346,-0.692270,0.446062
80000,-0.521936,-0.670376,8.719683,-0.584278,-1.440362,0.247589
84000,-0.466869,-0.689530,8.777143,-0.599545,-1.806774,0.003314
88000,-0.517148,-0.617704,8.882488,-0.248400,-1.898377,-0.179892
92000,-0.442927,-0.799663,8.942344,0.362287,-1.730438,-0.363098
96000,-0.457293,-0.677559,8.896853,0.621829,-1.211354,-0.546304
100000,-0.368707,-0.634463,8.762778,0.652363,-0.478530,-0.714243
104000,-0.591368,-0.715866,8.693346,0.453890,0.498570,-0.836380
108000,-0.701501,-0.648829,8.707711,0.514959,0.284829,-0.775312
112000,-0.778116,-0.675165,8.698134,-0.126262,0.101623,-0.637907
116000,-0.878672,-0.684742,8.537724,-0.828552,0.101623,-0.378365
120000,-0.931344,-0.756568,8.542512,-1.439240,-0.173186,-0.240961
124000,-0.928950,-0.823605,8.595184,-1.897255,-0.753339,-0.149358
128000,-1.019930,-0.895431,8.729259,-2.355270,-1.180820,0.155986
132000,-1.055843,-0.993594,8.899248,-2.614812,-1.287690,0.262856
136000,-1.173159,-0.976834,9.021352,-2.599545,-1.486163,0.614001
140000,-1.182736,-1.065420,9.186552,-2.110996,-1.470896,1.255223
144000,-1.233014,-1.142034,9.366117,-0.828552,-1.379293,1.988047
148000,-1.175553,-1.151611,9.524135,0.469157,-0.371659,2.491864
152000,-1.139640,-1.151611,9.452309,1.690531,0.330631,2.995681
156000,-1.144428,-1.175553,9.220071,2.774501,0.742844,3.423162
160000,-1.278504,-1.106121,9.093178,3.171447,0.773379,4.064383
164000,-1.211466,-1.127669,9.114726,3.186715,0.834447,4.354459
168000,-1.122881,-1.063026,9.066842,2.988241,1.277195,4.736139
172000,-1.139640,-1.074997,9.119514,2.911905,1.521470,5.255223
176000,-1.189918,-1.120486,8.904037,3.186715,1.246661,5.606368
180000,-1.288081,-1.053449,8.963891,3.156180,0.895516,6.110185
184000,-1.266533,-1.051055,8.961497,2.957707,0.452768,6.583467
188000,-1.319205,-1.010353,9.011775,3.034043,0.468035,6.919345
192000,-1.276109,-0.945710,8.887277,3.003508,0.605440,7.636902
196000,-1.233014,-0.928950,8.973468,3.125646,0.635974,7.972780
200000,-1.216254,-0.869095,8.858546,3.430989,1.093989,8.430795
204000,-1.158794,-0.890643,8.884883,3.812669,1.613073,8.598734
208000,-1.051055,-0.885855,8.777143,3.812669,2.071089,9.010947
212000,-1.154005,-0.830788,8.784326,3.614195,2.468035,9.362092
216000,-1.225831,-0.837971,8.743625,3.324119,2.559638,9.301023
220000,-1.261744,-0.967257,8.628703,2.835569,2.101623,9.545299
224000,-1.268927,-1.017536,8.616732,2.285951,1.338264,10.064383
228000,-1.393425,-1.067814,8.825027,2.255417,0.742844,10.369726
232000,-1.534683,-1.182736,8.892065,2.087478,-0.371659,10.980413
236000,-1.572991,-1.185130,8.863335,2.347020,-1.348759,11.667436
240000,-1.640028,-1.290475,8.923190,2.453890,-2.432728,12.339191
244000,-1.651999,-1.304840,9.081207,2.163814,-3.577766,13.178886
248000,-1.762132,-1.347936,9.251195,2.499691,-4.218988,14.232322
252000,-1.752556,-1.383849,9.421184,3.140913,-4.203721,15.453695
256000,-1.788469,-1.388637,9.311050,3.507325,-3.684637,16.522398
260000,-1.704672,-1.405396,9.356541,4.026409,-1.944179,17.560566
264000,-1.642422,-1.364695,9.289502,4.499691,-0.203721,18.751406
268000,-1.714248,-1.326388,9.282320,4.530226,0.941318,19.270491
272000,-1.702277,-1.388637,9.217676,6.102745,4.620707,20.201788
276000,-1.910573,-1.367089,9.071630,5.751600,3.246661,20.736139
280000,-1.867477,-1.352724,9.090784,5.919539,3.597806,21.713238
284000,-1.953669,-1.352724,9.136273,5.995875,4.345898,22.736139
288000,-2.082955,-1.345541,9.014170,6.255417,3.857348,23.499498
292000,-2.145205,-1.379060,9.028535,6.621829,3.384066,24.720873
296000,-2.200271,-1.501164,8.973468,6.805035,2.712310,25.423162
300000,-2.394202,-1.424550,9.054871,6.957707,1.231394,26.690338
304000,-2.458845,-1.498770,9.009381,7.003509,-0.310591,27.789574
308000,-2.552219,-1.465251,9.121908,7.324119,-1.730438,28.827742
312000,-2.700660,-1.505953,9.042900,7.308852,-3.012881,30.217054
316000,-2.695871,-1.632846,9.205706,7.583661,-2.509064,31.774307
320000,-2.755726,-1.589750,9.030929,7.476791,-2.447995,33.270489
324000,-2.858677,-1.580173,9.157822,7.156180,-2.096850,34.934612
328000,-2.964022,-1.630451,9.167398,7.049310,-1.043415,36.827744
332000,-3.038242,-1.601721,9.078813,6.866104,0.177959,38.598736
336000,-3.098097,-1.618480,8.932767,6.759233,1.735211,40.354462
340000,-3.215413,-1.632846,8.880095,6.331753,3.536737,41.972782
344000,-3.313575,-1.613692,8.772355,5.598928,4.819180,43.759041
348000,-3.445256,-1.620875,8.638280,4.728699,6.116890,45.911713
352000,-3.643975,-1.587356,8.461109,4.133279,6.956585,47.881176
356000,-3.794810,-1.549049,8.398860,2.972974,7.185593,50.415527
360000,-3.902549,-1.628057,8.257602,1.415722,7.460402,52.949879
364000,-3.904943,-1.606509,8.214506,0.056943,7.536737,55.652168
368000,-3.952827,-1.568202,8.324639,-0.859087,6.681776,58.690338
372000,-3.928885,-1.640028,8.523358,-1.469774,6.483303,61.407894
376000,-3.758897,-1.675941,8.614338,-1.790385,10.147424,64.491867
380000,-3.933673,-1.728614,8.554482,-2.798018,9.414599,67.285759
384000,-3.785233,-1.687912,8.530540,-3.301835,8.971851,69.957512
388000,-3.667917,-1.711854,8.877700,-3.973591,8.010019,72.415527
392000,-3.538630,-1.764527,9.124303,-3.378171,9.093989,74.644539
396000,-3.399766,-1.841141,9.167398,-2.660614,10.605439,77.255226
400000,-3.390190,-1.766921,8.961497,-2.507942,11.048187,79.346825
404000,-3.330335,-1.771709,8.944737,-2.492675,11.124523,80.858276
408000,-3.253720,-1.738190,8.935161,-2.431606,10.559638,82.491867
412000,-3.224990,-1.714248,8.968679,-2.156797,9.979486,84.186523
416000,-3.232172,-1.673547,8.999804,-2.401072,8.697042,86.033852
420000,-3.169923,-1.611298,8.865729,-2.752217,7.948951,87.377357
424000,-3.160346,-1.613692,8.851364,-3.332370,7.002387,88.965149
428000,-3.064578,-1.553837,8.947132,-3.530843,6.498569,90.583466
432000,-3.066972,-1.549049,8.877700,-3.423972,5.811547,92.155983
436000,-2.901772,-1.431733,8.892065,-3.469774,6.742845,93.850639
440000,-2.858677,-1.429338,8.757990,-3.530843,7.521471,95.514763
444000,-2.825158,-1.295263,8.573636,-4.049927,7.658875,97.010948
448000,-2.700660,-1.254562,8.475474,-4.446874,7.643608,98.247589
452000,-2.590526,-1.261744,8.386889,-5.011759,7.567272,99.255226
456000,-2.590526,-1.302446,8.456321,-5.546110,7.948951,100.247589
460000,-2.619257,-1.304840,8.216900,-6.309469,8.345898,101.270493
464000,-2.731784,-1.292869,8.142680,-7.393438,7.216127,102.247589
468000,-2.786851,-1.335965,8.188169,-8.492675,5.842081,102.904076
472000,-2.822764,-1.316811,8.231265,-9.256034,4.468035,104.308655
476000,-2.774880,-1.405396,8.228871,-9.591911,3.124524,105.331558
480000,-2.734178,-1.472434,8.245630,-10.034659,1.597806,106.293388
484000,-2.636016,-1.458069,8.341399,-10.492675,0.361165,107.041481
488000,-2.829947,-1.608904,8.228871,-10.553743,-1.257156,108.079651
492000,-2.942474,-1.616086,8.188169,-10.981225,-3.989980,109.133087
496000,-3.069367,-1.707066,8.046912,-11.133897,-7.348759,109.713242
500000,-3.107674,-1.771709,8.070854,-11.347637,-7.898377,111.514763
504000,-3.189077,-1.838747,8.279149,-12.217866,-9.791507,113.163620
508000,-3.148375,-1.862689,8.202535,-12.278935,-12.646469,114.827744
512000,-3.033453,-1.838747,8.240842,-12.523210,-14.112118,116.491867
516000,-3.110068,-1.917756,8.197746,-12.278935,-14.295324,118.247589
520000,-2.975993,-1.898602,8.054094,-12.523210,-14.203721,120.583466
524000,-2.885013,-1.833959,8.015787,-13.057561,-14.142653,122.369728
528000,-2.683900,-1.798046,7.929596,-13.973592,-14.860209,123.850639
532000,-2.631228,-1.754950,7.929596,-14.798018,-16.264790,125.056747
536000,-2.260126,-1.683124,8.075643,-15.317103,-16.051048,126.125450
540000,-1.977611,-1.723825,8.370130,-15.912522,-12.890744,127.026215
544000,-1.838747,-1.575385,8.372523,-16.126263,-11.226622,127.591095
548000,-1.659182,-1.522712,8.195353,-16.798018,-9.165553,127.911713
552000,-1.541866,-1.558625,8.236053,-16.965956,-8.218987,127.988052
556000,-1.474828,-1.654393,8.506598,-15.820920,-6.554865,127.820114
560000,-1.520318,-1.635240,8.312668,-15.698781,-6.539598,127.942245
564000,-1.577779,-1.644817,8.336611,-16.416338,-5.196087,128.171249
568000,-1.587356,-1.659182,8.353370,-16.324736,-2.921278,128.736145
572000,-1.704672,-1.632846,8.075643,-16.492674,-1.745705,129.362091
576000,-1.544260,-1.635240,7.903260,-16.691147,-1.486163,130.018585
580000,-1.539472,-1.654393,7.829040,-16.950689,-1.974713,130.232315
584000,-1.630451,-1.774103,7.838616,-17.622444,-2.677003,130.461334
588000,-1.702277,-1.812411,7.735666,-18.019392,-4.707537,130.491867
592000,-1.731008,-1.879448,7.711724,-18.736948,-7.058682,130.949875
596000,-1.666364,-1.881842,7.821857,-18.904888,-8.035782,131.163620
600000,-1.740585,-1.968034,7.979874,-18.981224,-10.768606,131.514771
604000,-1.661576,-2.015918,8.039729,-18.095728,-12.921278,132.079651
608000,-1.630451,-1.991976,8.101978,-16.996490,-13.959446,132.507126
612000,-1.654393,-2.003947,7.994239,-16.446873,-15.364026,133.041489
616000,-1.687912,-2.006341,7.769185,-16.416338,-16.585400,133.285751
620000,-1.644817,-2.044648,7.893683,-16.996490,-18.112118,134.064377
624000,-1.671153,-2.061408,7.931990,-17.637712,-19.654102,134.476593
628000,-1.644817,-2.087744,8.020576,-17.790384,-20.600668,135.026215
632000,-1.651999,-2.097321,8.044518,-17.973591,-20.585400,135.988052
636000,-1.731008,-2.272097,7.975086,-18.691147,-18.081583,137.285751
640000,-1.829170,-2.315193,8.078036,-19.515575,-17.654102,138.384995
644000,-1.798046,-2.363077,8.180987,-20.141529,-16.799141,139.972778
648000,-1.683124,-2.367866,8.281544,-20.446873,-14.860209,141.438431
652000,-1.666364,-2.339135,8.245630,-20.645346,-12.921278,142.812469
656000,-1.379060,-2.312799,8.293514,-21.103361,-10.768606,143.575836
660000,-1.300052,-2.334347,8.214506,-21.164431,-8.142652,144.720871
664000,-1.168370,-2.236184,8.183381,-20.859087,-5.883110,145.178894
668000,-1.108515,-2.233790,8.082825,-21.179697,-3.989980,145.728500
672000,-1.005565,-2.248155,7.994239,-21.439240,-1.822041,146.125458
676000,-0.945710,-2.173935,7.759608,-22.095728,-0.264789,146.339188
680000,-0.900220,-2.106898,7.592013,-23.240767,0.513837,146.736145
684000,-0.785298,-2.164358,7.551312,-24.477407,0.208493,146.522400
688000,-0.785298,-2.145205,7.472303,-25.546110,-0.218988,146.430801
692000,-0.794875,-2.276886,7.455544,-26.370537,-1.379293,146.644531
696000,-0.617704,-2.231396,7.513005,-27.286568,-2.982346,146.980408
700000,-0.502782,-2.217031,7.613562,-28.370537,-4.249522,147.224686
704000,-0.418985,-2.190695,7.692570,-29.286568,-5.623568,146.980408
708000,-0.215478,-2.310405,7.975086,-29.240765,-6.814407,146.858276
712000,-0.533907,-2.355895,8.099585,-29.698780,-6.356392,146.919342
716000,-0.818817,-2.583344,8.216900,-30.217865,-8.402194,148.110184
720000,-1.101333,-2.712631,8.348581,-30.904888,-10.218988,150.125458
724000,-1.189918,-2.770091,8.695741,-32.492676,-11.196087,152.384995
728000,-0.782904,-2.846706,9.026140,-31.454506,-11.150286,154.797211
732000,-0.423774,-2.638410,8.889671,-30.614811,-9.562500,156.323929
736000,0.093374,-2.492364,8.930372,-31.836185,-7.883110,156.766678
740000,0.572214,-2.415750,9.504981,-32.019390,-4.020514,156.675064
744000,1.070208,-2.310405,9.962274,-30.645348,0.284829,155.865906
748000,1.400608,-2.142811,10.017340,-28.904888,3.628341,153.865906
752000,1.769315,-1.941698,10.084377,-27.652979,8.086355,151.224686
756000,1.922544,-1.920150,10.055647,-26.172064,12.071088,148.155991
760000,1.917756,-1.754950,9.852140,-24.126263,14.926050,144.995682
764000,1.606509,-1.774103,9.739613,-22.874353,15.765745,141.865906
768000,1.249773,-1.845930,9.804255,-21.836185,15.017653,139.514771
772000,0.986411,-1.915361,9.667787,-20.034658,13.521470,138.049118
776000,1.017536,-1.905785,9.658210,-18.691147,12.300096,136.583466
780000,0.998382,-1.944092,9.402030,-17.362904,11.368798,134.766678
784000,0.842759,-1.900996,9.315839,-16.263666,9.109256,133.194153
788000,0.653617,-1.936909,9.109938,-14.874354,6.742845,130.888809
792000,0.617704,-1.982399,8.983045,-14.385804,4.330631,129.804840
796000,0.591368,-2.049437,8.944737,-14.065194,1.185592,128.339188
800000,0.512359,-2.073379,8.913613,-13.423972,-1.699904,126.812477
804000,0.493206,-2.063802,8.825027,-13.118629,-4.371659,125.407898
808000,0.450110,-2.154782,8.956709,-12.981225,-7.043415,124.186523
812000,0.404620,-2.219425,9.047688,-12.691148,-8.188454,123.133087
816000,0.325611,-2.272097,9.313444,-11.973591,-9.302958,122.446060
820000,0.203507,-2.279280,9.521740,-11.469774,-10.112118,122.201790
824000,0.124498,-2.329558,9.787497,-10.538477,-8.875477,122.522400
828000,0.225055,-2.308010,9.880871,-9.561378,-6.677003,122.751404
832000,0.519542,-2.329558,9.950302,-8.370538,-4.310591,122.934616
836000,0.507571,-2.233790,9.888053,-7.286569,-0.997614,123.285759
840000,0.584185,-2.217031,9.844957,-6.767485,2.422234,123.270493
844000,0.713472,-2.176329,9.708488,-6.401072,6.559639,123.774307
848000,0.823605,-2.214637,9.581595,-6.095729,10.727577,123.789574
852000,0.981623,-2.047042,9.533711,-5.714049,14.712310,123.575836
856000,1.197101,-2.006341,9.351752,-5.271301,18.971851,123.087288
860000,1.278504,-1.910573,9.112331,-5.301835,22.513836,121.820107
864000,1.335965,-1.833959,8.908825,-5.072827,24.391699,120.415527
868000,1.177947,-1.833959,8.702923,-5.347637,24.956585,118.522400
872000,1.024718,-1.774103,8.592790,-5.790385,23.414600,117.301025
876000,0.988805,-1.869871,8.597578,-5.591911,20.697042,115.835373
880000,0.950498,-1.793257,8.623915,-5.423973,18.269562,114.751404
884000,1.039083,-1.812411,8.631097,-5.485042,15.994753,113.407898
888000,1.218649,-1.656788,8.441956,-5.286569,15.384066,112.598732
892000,1.391031,-1.596933,8.410830,-5.133897,15.185592,111.316292
896000,1.470040,-1.601721,8.432379,-5.103362,14.284829,109.820107
900000,1.659182,-1.482011,8.499416,-5.103362,13.139791,108.110184
904000,1.661576,-1.534683,8.719683,-4.981225,13.185592,106.552933
908000,1.860295,-1.453280,8.571242,-4.706415,14.498569,104.812477
912000,1.869871,-1.501164,8.566454,-4.904889,16.437500,102.965149
916000,1.671153,-1.470040,8.307879,-5.347637,17.063456,101.087288
920000,1.604115,-1.510741,8.121132,-5.515575,16.498569,99.774307
924000,1.448492,-1.520318,8.164227,-5.927790,16.040554,98.552933
928000,1.522712,-1.606509,8.324639,-5.408706,16.330629,97.530029
932000,0.852336,-1.376666,8.561666,-7.393438,11.887882,97.194153
936000,0.854730,-1.419762,7.184999,-8.569011,-22.081583,93.148354
940000,1.400608,-1.101333,7.362170,-11.958323,-50.035782,88.888809
944000,2.439692,-1.218649,7.886500,-11.088095,-45.760971,86.491867
948000,1.984793,-1.132457,7.963115,-12.721683,-56.722805,83.102554
952000,2.609680,-1.084573,8.204929,-13.546111,-62.142651,80.155983
956000,3.184288,-1.031901,8.444349,-12.080461,-50.234257,78.201790
960000,3.186682,-1.029507,8.793902,-10.675881,-37.638836,76.094917
964000,2.786851,-1.029507,8.762778,-10.340003,-33.440361,73.026215
968000,2.645593,-1.072602,8.604761,-8.172065,-31.394560,70.293388
972000,2.487576,-1.063026,8.578424,-9.561378,-33.562500,68.064384
976000,2.468422,-1.201889,8.760384,-10.019393,-34.218987,66.583466
980000,2.367866,-1.235408,8.860941,-5.637713,-29.623568,63.163620
984000,2.061408,-1.137246,8.726865,-10.614813,-35.791508,63.056751
988000,2.032677,-1.000776,8.853758,-9.362904,-31.760973,61.881176
992000,2.272097,-0.979228,8.932767,-8.156797,-27.852575,60.766674
996000,2.681506,-0.988805,9.117120,-5.714049,-17.501431,59.881176
1000000,2.202666,-0.758962,9.006987,-6.049927,-21.913645,57.148354
1004000,2.592921,-0.670376,8.829816,-6.141530,-20.096851,55.560566
1008000,2.664747,-0.708684,8.746018,-5.759851,-21.440363,53.041481
1012000,2.743755,-0.560243,8.822633,-4.981225,-20.432728,50.079651
1016000,2.748544,-0.452504,8.803479,-3.790385,-17.867844,47.865910
1020000,2.801216,-0.347159,8.535329,-4.263667,-16.066317,46.247589
1024000,2.717419,-0.411803,8.374918,-4.599545,-18.386927,43.804840
1028000,2.940080,-0.268151,8.109161,-4.507942,-17.058683,41.835377
1032000,2.612074,-0.227449,8.042124,-5.072827,-16.112118,39.942245
1036000,2.379837,-0.208296,8.010999,-5.836186,-21.364027,37.636902
1040000,2.315193,-0.217872,7.501034,-4.630079,-25.852575,35.667439
1044000,2.726996,-0.191536,8.090008,-10.569011,-27.302958,34.125454
1048000,2.621651,-0.131681,8.456321,-9.851454,-23.150286,33.514767
1052000,2.662352,-0.083797,8.470686,-9.439240,-18.585400,32.888809
1056000,2.719813,0.105345,8.173804,-9.332370,-13.638836,31.820110
1060000,2.700660,0.251391,7.848193,-10.660614,-11.516698,30.400261
1064000,2.741361,0.397437,7.920019,-11.210233,-7.944179,28.934612
1068000,2.638410,0.457293,7.958326,-12.172065,-7.959445,27.072018
1072000,2.861071,0.442927,8.212111,-10.736950,-4.585400,25.041483
1076000,3.296816,0.272939,7.884106,-11.454507,-3.867843,22.965147
1080000,3.040636,0.509965,8.025364,-11.149163,5.032921,20.262857
1084000,2.492364,0.488417,8.018182,-11.347637,-0.066316,16.232323
1088000,2.437297,0.368707,8.252813,-12.828553,-3.852576,13.636902
1092000,2.346318,0.158017,8.614338,-12.462140,0.025287,12.537665
1096000,2.159570,0.083797,9.138668,-11.332370,2.910783,10.919344
1100000,2.001553,-0.038307,9.758766,-10.752217,2.025287,9.224688
1104000,2.092532,-0.167594,9.964667,-8.385805,3.613073,8.232322
1108000,1.886631,-0.234632,10.321404,-6.416339,4.620707,7.774307
1112000,1.716643,-0.270545,10.488997,-3.729316,4.635974,7.102551
1116000,1.613692,-0.301669,10.441113,-1.851454,3.918417,6.568200
1120000,1.618480,-0.191536,10.127473,-0.660614,2.956585,5.774307
1124000,1.594538,-0.138864,9.950302,0.820302,2.269562,5.133085
1128000,1.522712,-0.107739,9.627085,1.995875,1.155058,4.323925
1132000,1.513135,0.002394,9.150639,2.591295,2.208493,3.392627
1136000,1.515530,0.071826,8.856153,2.850837,4.483303,2.720871
1140000,1.379060,0.222661,8.487445,2.453890,6.697043,1.591100
1144000,1.424550,0.258574,8.183381,1.797401,9.689409,0.843009
1148000,1.367089,0.330400,8.070854,1.125646,12.773378,-0.302029
1152000,1.146823,0.332794,8.070854,0.713432,16.742844,-0.973785
1156000,1.094150,0.316035,8.092402,-0.614812,20.559637,-1.966151
1160000,0.928950,0.306458,8.250419,-1.622446,23.261929,-2.943251
1164000,0.560243,0.304064,8.188169,-2.263667,24.269562,-3.798213
1168000,0.442927,0.158017,8.343793,-2.904888,24.956585,-4.485235
1172000,0.055067,0.090980,8.406042,-3.439240,25.735210,-4.637907
1176000,-0.086191,-0.038307,8.700529,-3.790385,24.803913,-4.622640
1180000,-0.471658,-0.117316,8.700529,-4.110995,24.025288,-4.439434
1184000,-0.768539,-0.191536,8.635885,-4.217866,17.200859,-4.882182
1188000,-0.725443,-0.232238,8.920795,-3.820919,15.796280,-4.363098
1192000,-0.775721,-0.390255,9.143456,-2.340003,16.116890,-4.134090
1196000,-0.921768,-0.320823,9.148245,-1.439240,14.361164,-3.966152
1200000,-1.024718,-0.351948,9.136273,-0.324736,11.093989,-4.027220
1204000,-0.955287,-0.361524,9.200917,0.606562,9.277195,-4.073022
1208000,-1.209072,-0.383072,9.028535,1.263050,7.994752,-3.630274
1212000,-1.130063,-0.416591,8.774749,2.041676,6.330631,-3.660808
1216000,-1.142034,-0.411803,8.662222,2.270684,5.414600,-3.324930
1220000,-1.137246,-0.421380,8.583213,2.041676,5.643608,-3.309663
1224000,-1.156399,-0.366313,8.638280,1.797401,5.842081,-3.126457
1228000,-1.151611,-0.380678,8.655039,1.812669,6.147425,-3.233327
1232000,-1.218649,-0.416591,8.652645,2.270684,6.513837,-3.309663
1236000,-1.359907,-0.356736,8.585608,2.041676,6.177959,-3.340197
1240000,-1.417367,-0.371101,8.520964,1.904272,6.071089,-3.187526
1244000,-1.649605,-0.426168,8.492233,1.354653,3.887883,-2.836380
1248000,-1.393425,-0.464475,8.530540,1.614195,8.529103,-1.706609
1252000,-1.798046,-0.378284,8.556877,0.255417,4.223761,-2.363098
1256000,-1.659182,-0.474052,8.568848,0.240150,6.223761,-0.790579
1260000,-1.659182,-0.351948,8.588001,0.255417,6.651241,0.049116
1264000,-1.604115,-0.318429,8.573636,-1.011759,2.987119,0.690337
1268000,-1.345541,-0.284910,8.712500,-0.981224,1.032921,0.720871
1272000,-1.443704,-0.148441,8.564059,-2.401072,1.170325,1.362093
1276000,-1.163582,-0.136469,8.518570,-1.546110,-1.898377,1.163620
1280000,-0.780510,-0.150835,8.860941,-1.439240,5.887883,2.094917
1284000,-1.113304,-0.179565,8.702923,-1.439240,5.658875,1.972780
1288000,-0.928950,-0.102951,8.611943,-1.118629,3.475669,1.865910
1292000,-0.981623,-0.067038,8.310274,-1.988858,-1.302957,1.346826
1296000,-0.790087,-0.102951,8.468291,-1.836186,-4.066316,0.980413
1300000,-0.672771,-0.131681,9.112331,-1.057560,-0.341125,1.072016
1304000,-1.015141,-0.169988,9.050082,0.285951,-3.104484,1.133085
1308000,-0.605733,-0.234632,9.294291,2.820302,-0.722805,1.224688
1312000,-0.651223,-0.165200,9.052477,3.675264,0.635974,1.636902
1316000,-0.641646,-0.131681,8.923190,3.827936,0.147424,1.453696
1320000,-0.603339,-0.158017,8.942344,3.812669,-0.814408,1.392627
1324000,-0.500388,-0.184354,8.762778,3.598928,-1.669369,1.362093
1328000,-0.591368,-0.165200,8.604761,3.217249,-1.898377,1.041482
1332000,-0.521936,-0.071826,8.343793,2.056943,-2.463263,0.797207
1336000,-0.605733,-0.141258,8.327033,0.957707,-2.341125,0.598734
1340000,-0.572214,-0.146046,8.540117,-0.294202,-4.218988,0.323925
1344000,-0.478840,-0.150835,8.762778,-0.263667,-0.157919,0.659803
1348000,-0.466869,-0.165200,8.887277,-0.752217,-0.234255,0.583467
1352000,-0.505177,-0.131681,8.652645,-0.752217,-3.654102,-0.042487
1356000,-0.486023,-0.141258,8.537724,-1.408705,-5.867843,-0.500503
1360000,-0.557849,-0.158017,8.664616,-1.530843,-8.814408,-1.935617
1364000,-0.617704,-0.191536,8.836999,-1.500308,-7.928911,-2.118823
1368000,-0.885855,-0.229843,8.975863,-0.675881,-9.470897,-2.424167
1372000,-0.835576,-0.344765,9.047688,-0.065194,-10.875477,-2.546304
1376000,-1.039083,-0.289698,8.983045,-0.385804,-11.837309,-2.714243
1380000,-0.998382,-0.222661,8.949526,-0.416339,-13.089217,-2.439434
1384000,-0.993594,-0.232238,9.038112,-0.080461,-13.898377,-2.134090
1388000,-0.998382,-0.316035,9.188946,0.133279,-16.188454,-1.966151
1392000,-0.979228,-0.361524,8.997410,-0.202598,-16.218988,-1.569205
1396000,-0.871489,-0.337582,8.772355,-0.187331,-17.928911,-1.187526
1400000,-0.816423,-0.313640,8.719683,-0.431606,-18.218988,-0.668442
1404000,-0.641646,-0.356736,8.801085,-0.630080,-18.005247,-0.302029
1408000,-0.512359,-0.356736,8.599973,-0.675881,-17.180820,-0.011953
1412000,-0.409408,-0.359130,8.501810,-1.133896,-15.547233,-0.149358
1416000,-0.409408,-0.289698,8.501810,-1.607178,-13.928912,0.262856
1420000,-0.359130,-0.325611,8.511387,-1.714049,-12.417461,0.293391
1424000,-0.325611,-0.344765,8.420407,-1.485041,-10.417461,0.323925
1428000,-0.342371,-0.282516,8.303091,-2.080461,-8.066316,0.323925
1432000,-0.308852,-0.320823,8.406042,-2.355270,-5.898377,0.430795
1436000,-0.265756,-0.313640,8.530540,-2.370538,-3.226621,0.705604
1440000,-0.275333,-0.246603,8.408437,-1.973591,-1.180820,0.888810
1444000,-0.268151,-0.311246,8.501810,-2.065194,0.559638,0.675070
1448000,-0.241814,-0.280122,8.540117,-1.637713,2.208493,0.751406
1452000,-0.196325,-0.308852,8.595184,-1.362904,3.689409,0.690337
1456000,-0.220267,-0.270545,8.463503,-1.469774,5.460402,0.812474
1460000,-0.234632,-0.244209,8.501810,-1.729316,6.055821,0.934612
1464000,-0.141258,-0.275333,8.671799,-0.889621,7.689410,0.827742
1468000,-0.124498,-0.237026,8.798691,-0.599545,9.200859,0.812474
1472000,-0.100556,-0.244209,8.753201,-0.263667,10.055821,0.537665
1476000,-0.153229,-0.260968,8.611943,0.209615,7.445135,-0.134090
1480000,-0.031125,-0.246603,8.686164,-0.202598,8.956584,0.003314
1484000,-0.201113,-0.351948,8.599973,0.301218,10.162691,-0.561571
1488000,-0.402226,-0.234632,8.470686,-0.202598,6.422234,-0.790579
1492000,-0.081403,-0.294487,8.801085,0.713432,9.231394,-1.019587
1496000,-0.426168,-0.248997,8.779537,0.591295,9.155058,-1.111190
1500000,-0.488417,-0.217872,8.743625,0.972974,8.055821,-1.187526
1504000,-0.615310,-0.251391,8.638280,0.637096,5.689409,-1.355464
1508000,-0.603339,-0.220267,8.604761,0.637096,5.231394,-1.569205
1512000,-0.794875,-0.169988,8.530540,-0.233133,3.704677,-1.706609
1516000,-0.699107,-0.294487,8.590396,-0.217866,6.422234,-1.218060
1520000,-0.900220,-0.354342,8.700529,-0.416339,5.994753,-1.156991
1524000,-0.969652,-0.270545,8.516175,-1.072828,1.063455,-1.477602
1528000,-0.852336,-0.311246,8.848969,-1.088094,1.597806,-0.989052
1532000,-0.758962,-0.356736,8.995016,-0.706415,1.582539,-0.805846
1536000,-0.849942,-0.397437,8.916007,-0.813286,-1.028148,-1.233327
1540000,-0.780510,-0.399832,8.796297,-0.523209,-3.012881,-1.263861
1544000,-0.598550,-0.438139,8.875306,0.041676,-0.951812,-1.355464
1548000,-0.814029,-0.375890,8.702923,-0.324736,-0.936545,-1.370732
1552000,-0.675165,-0.325611,8.734048,0.285951,2.177959,-1.370732
1556000,-0.950498,-0.301669,8.513782,-0.431606,-3.302957,-2.042487
1560000,-0.936133,-0.256180,8.516175,-1.149163,-5.226621,-2.118823
1564000,-0.849942,-0.263362,8.578424,-1.179698,-6.356392,-2.225693
1568000,-0.806846,-0.306458,8.748413,-1.576644,-4.447995,-1.935617
1572000,-0.916979,-0.234632,8.774749,-2.034660,-4.982347,-1.492869
1576000,-0.790087,-0.256180,8.753201,-2.019392,-4.951812,-1.187526
1580000,-0.694318,-0.241814,8.791509,-1.805652,-5.379293,-1.370732
1584000,-0.533907,-0.275333,9.241618,-0.355270,-2.554866,-1.294396
1588000,-0.694318,-0.232238,9.232041,0.163814,-2.753339,-1.523403
1592000,-0.641646,-0.287304,9.296685,0.682898,-3.302957,-1.660808
1596000,-0.799663,-0.282516,8.985439,0.377554,-7.211354,-1.889816
1600000,-0.672771,-0.320823,9.090784,1.369921,-6.463263,-1.508136
1604000,-0.758962,-0.438139,9.064447,1.263050,-6.417461,-0.866915
1608000,-0.802058,-0.383072,8.738836,1.522592,-8.066316,-0.790579
1612000,-0.577003,-0.311246,8.781932,1.400455,-8.295323,-0.134090
1616000,-0.457293,-0.289698,8.719683,1.140913,-7.791507,0.079650
1620000,-0.371101,-0.256180,8.906430,0.866104,-8.096850,0.232322
1624000,-0.260968,-0.268151,8.678981,1.110379,-7.715171,-0.042487
1628000,-0.289698,-0.313640,8.597578,0.866104,-6.783873,-0.164625
1632000,-0.227449,-0.289698,8.556877,0.743966,-5.852575,-0.210426
1636000,-0.282516,-0.205901,8.573636,0.408088,-4.722805,-0.225693
1640000,-0.272939,-0.196325,8.664616,0.545493,-4.417461,-0.347831
1644000,-0.272939,-0.248997,8.746018,0.881371,-3.883110,-0.408900
1648000,-0.263362,-0.234632,8.599973,1.034043,-3.577766,-0.393632
1652000,-0.248997,-0.150835,8.559271,0.484424,-3.211354,-0.882182
1656000,-0.330400,-0.186748,8.702923,0.652363,-2.722805,-0.943251
1660000,-0.229843,-0.275333,8.671799,0.469157,-2.112118,-1.019587
1664000,-0.313640,-0.256180,8.736442,0.179081,-1.837308,-0.989052
1668000,-0.399832,-0.339977,8.621520,-0.095728,-1.135018,-0.866915
1672000,-0.454898,-0.306458,8.549694,-0.691148,-0.203721,-0.531037
1676000,-0.442927,-0.356736,8.597578,-1.439240,-0.539598,-0.057755
1680000,-0.320823,-0.294487,8.604761,-1.698782,0.223760,0.064383
1684000,-0.656011,-0.270545,8.482656,-2.813286,-4.371659,-0.027220
1688000,-0.332794,-0.292093,8.722076,-2.584278,-2.356392,0.018581
1692000,-0.253785,-0.414197,8.863335,-1.759850,0.773379,0.125452
1696000,-0.375890,-0.363919,8.779537,-2.217866,0.941318,-0.179892
1700000,-0.359130,-0.328006,8.616732,-1.698782,0.406966,-0.271495
1704000,-0.478840,-0.344765,8.487445,-2.217866,-2.799140,-0.989052
1708000,-0.457293,-0.351948,8.688558,-1.866720,-2.875476,-1.156991
1712000,-0.332794,-0.356736,8.803479,-1.149163,0.697043,-1.218060
1716000,-0.651223,-0.392649,8.841787,-1.271301,2.681776,-0.866915
1720000,-0.854730,-0.320823,8.602366,-2.110996,-0.738072,-1.034854
1724000,-0.593762,-0.301669,8.573636,-2.263667,-4.127385,-0.989052
1728000,-0.428562,-0.347159,8.779537,-2.324736,-0.478530,-0.546304
1732000,-0.421380,-0.277727,9.119514,-1.240766,5.277195,-0.179892
1736000,-0.667982,-0.380678,9.028535,-0.355270,2.635974,-0.210426
1740000,-0.672771,-0.268151,8.920795,0.301218,-0.005247,-0.240961
1744000,-0.603339,-0.308852,8.983045,0.728699,-0.356392,-0.424167
1748000,-0.713472,-0.351948,8.839393,0.911905,-1.822041,-0.454701
1752000,-0.718261,-0.306458,8.920795,0.957707,-3.196087,-0.195159
1756000,-0.708684,-0.335188,8.825027,0.942440,-3.867843,0.232322
1760000,-0.464475,-0.311246,8.774749,1.110379,-3.547232,0.262856
1764000,-0.378284,-0.296881,8.513782,0.728699,-2.264789,0.140719
1768000,-0.344765,-0.246603,8.549694,0.667630,-0.967079,-0.164625
1772000,-0.407014,-0.260968,8.449138,0.469157,0.864982,-0.393632
1776000,-0.361524,-0.277727,8.602366,-0.278934,2.101623,-0.347831
1780000,-0.452504,-0.284910,8.695741,-0.477408,2.788646,-0.576838
1784000,-0.514753,-0.275333,8.621520,-0.782751,2.819180,-0.714243
1788000,-0.610521,-0.313640,8.832211,-0.828552,2.803913,-0.622640
1792000,-0.694318,-0.359130,8.674192,-1.042293,0.926050,-0.668442
1796000,-0.897826,-0.270545,8.480263,-2.110996,-9.089217,-1.095922
1800000,-0.347159,-0.335188,9.112331,-0.935423,-5.135018,-0.866915
1804000,-0.581791,-0.371101,9.241618,0.056943,-3.806774,-0.882182
1808000,-0.612916,-0.397437,9.105149,1.018775,-4.051049,-0.546304
1812000,-0.577003,-0.287304,9.033323,0.698165,-5.409827,-0.576838
1816000,-0.684742,-0.342371,8.978256,0.591295,-6.875476,-0.653174
1820000,-0.663194,-0.366313,8.899248,0.545493,-8.020514,-0.454701
1824000,-0.603339,-0.296881,8.746018,0.240150,-8.127385,0.094917
1828000,-0.605733,-0.325611,8.798691,0.102745,-7.409827,0.384994
1832000,-0.538695,-0.225055,8.757990,-0.126262,-6.738071,0.583467
1836000,-0.390255,-0.237026,8.633492,-0.141530,-6.020514,0.461329
1840000,-0.351948,-0.186748,8.676587,-0.492675,-4.829675,0.614001
1844000,-0.270545,-0.248997,8.621520,-0.233133,-4.371659,0.110184
1848000,-0.191536,-0.138864,8.714894,-0.263667,-4.035782,-0.302029
1852000,-0.296881,-0.138864,8.659827,0.056943,-4.432728,-1.111190
1856000,-0.390255,-0.272939,8.762778,0.469157,-5.211354,-1.324930
1860000,-0.497994,-0.265756,8.736442,0.911905,-5.806774,-1.660808
1864000,-0.531513,-0.253785,8.762778,1.079844,-6.173186,-1.599739
1868000,-0.541090,-0.304064,8.796297,1.064577,-6.432728,-1.279129
1872000,-0.548272,-0.237026,8.726865,0.911905,-6.371659,-0.989052
1876000,-0.478840,-0.210690,8.765172,0.545493,-5.959445,-0.515770
1880000,-0.462081,-0.260968,8.683769,0.484424,-5.318224,-0.515770
1884000,-0.416591,-0.220267,8.667010,0.301218,-4.218988,-0.134090
1888000,-0.414197,-0.215478,8.599973,0.285951,-3.211354,-0.073022
1892000,-0.359130,-0.198719,8.465898,0.087478,-1.730438,0.125452
1896000,-0.366313,-0.248997,8.621520,-0.233133,-0.570133,0.186520
1900000,-0.395043,-0.280122,8.580819,-0.202598,0.406966,0.140719
1904000,-0.361524,-0.378284,8.705317,-0.172064,0.956585,-0.042487
1908000,-0.392649,-0.344765,8.628703,-0.187331,1.246661,-0.164625
1912000,-0.497994,-0.373495,8.820239,-0.370538,1.078722,-0.027220
1916000,-0.414197,-0.390255,8.815451,-0.049927,0.330631,-0.011953
1920000,-0.337582,-0.462081,8.875306,0.484424,-0.585400,-0.164625
1924000,-0.282516,-0.423774,8.774749,0.743966,-1.073950,-0.134090
1928000,-0.282516,-0.418985,8.860941,0.667630,-1.043415,-0.256228
1932000,-0.308852,-0.435745,8.801085,0.545493,-0.692270,-0.179892
1936000,-0.323217,-0.342371,8.779537,0.591295,-0.554866,-0.149358
1940000,-0.306458,-0.318429,8.774749,0.514959,-0.280056,-0.134090
1944000,-0.332794,-0.210690,8.688558,0.698165,-0.142652,0.247589
1948000,-0.196325,-0.119710,8.638280,0.698165,0.819180,0.278123
1952000,-0.205901,-0.074220,8.592790,0.438623,2.101623,0.155986
1956000,-0.198719,-0.088585,8.556877,-0.095728,2.742844,-0.073022
1960000,-0.232238,-0.071826,8.542512,-0.217866,3.216127,-0.179892
1964000,-0.347159,-0.136469,8.669404,-0.431606,3.353531,-0.561571
1968000,-0.457293,-0.095768,8.664616,-0.614812,2.712310,-0.271495
1972000,-0.531513,-0.093374,8.786720,-0.935423,1.765745,-0.485235
1976000,-0.584185,-0.167594,8.798691,-1.027026,0.819180,-0.469968
1980000,-0.658405,-0.237026,8.779537,-1.240766,-1.150285,-0.454701
1984000,-0.598550,-0.270545,8.578424,-1.927789,-6.875476,-0.637907
1988000,-0.347159,-0.373495,9.004593,-1.973591,-4.615934,-0.240961
1992000,-0.361524,-0.421380,8.983045,-1.637713,-0.066316,-0.103556
1996000,-0.509965,-0.385466,8.872911,-1.729316,-0.783873,0.247589
