time_us,ax,ay,az,gx,gy,gz
0,-0.476446,-1.103727,8.698134,-0.736950,0.208493,1.224688
4000,-0.421380,-1.094150,8.779537,-1.149163,-0.264789,1.224688
8000,-0.399832,-1.137246,8.798691,-1.027026,-0.661736,1.514765
12000,-0.330400,-1.072602,8.659827,-0.950690,-0.844942,1.453696
16000,-0.330400,-1.077391,8.884883,-0.614812,-1.043415,1.713238
20000,-0.191536,-1.055843,8.920795,-0.340003,-1.318224,1.514765
24000,-0.165200,-1.010353,8.851364,0.285951,-0.875476,1.468963
28000,-0.203507,-1.144428,8.796297,0.560760,-0.417461,1.209421
32000,-0.177171,-0.933739,8.707711,0.514959,-0.142652,1.087284
36000,-0.361524,-1.036689,8.643068,0.667630,-0.112117,0.888810
40000,-0.294487,-1.027112,8.645462,0.514959,-0.051049,0.583467
44000,-0.268151,-0.979228,8.650250,0.224882,0.162692,0.766673
48000,-0.342371,-1.063026,8.686164,-0.614812,-0.020514,0.415528
52000,-0.359130,-1.101333,8.700529,-0.660614,0.025287,0.690337
56000,-0.409408,-1.094150,8.724471,-0.874354,0.330631,0.690337
60000,-0.464475,-1.122881,8.779537,-0.904888,-0.066316,0.980413
64000,-0.541090,-1.192312,8.882488,-0.431606,-0.142652,1.056749
68000,-0.529119,-1.154005,8.856153,0.194348,0.010020,1.270490
72000,-0.620098,-1.211466,8.808268,0.774501,0.361165,1.438429
76000,-0.493206,-1.165976,8.724471,0.927172,1.032921,1.881177
80000,-0.588974,-1.175553,8.640674,0.789768,1.277195,2.217055
84000,-0.598550,-1.223437,8.743625,0.606562,0.758111,2.155986
88000,-0.586579,-1.151611,8.765172,0.896638,-0.142652,2.476597
92000,-0.682347,-1.182736,8.611943,1.354653,-0.722805,2.934612
96000,-0.658405,-1.168370,8.726865,1.369921,-1.577766,2.980413
100000,-0.531513,-1.058237,8.698134,1.400455,-1.593034,2.949879
104000,-0.574608,-1.132457,8.729259,1.339386,-1.547232,3.224688
108000,-0.471658,-1.149217,8.712500,1.553127,-1.822041,2.919345
112000,-0.464475,-1.067814,8.820239,1.843203,-2.310591,2.629268
116000,-0.538695,-1.113304,8.738836,1.721066,-3.012881,2.659803
120000,-0.646434,-1.084573,8.698134,1.690531,-3.470896,2.476597
124000,-0.629675,-1.154005,8.810662,1.583661,-2.677003,2.919345
128000,-0.591368,-1.130063,8.899248,1.476791,-1.623568,3.209421
132000,-0.636858,-1.173159,8.975863,1.568394,-0.570133,3.652169
136000,-0.588974,-1.137246,9.023746,1.751600,0.819180,3.789574
140000,-0.615310,-1.151611,8.956709,1.995875,1.826814,4.323925
144000,-0.629675,-1.180341,8.963891,2.423356,2.513837,4.293391
148000,-0.610521,-1.209072,9.011775,2.759233,2.788646,4.583467
152000,-0.651223,-1.209072,8.973468,2.881371,2.803913,4.644536
156000,-0.785298,-1.235408,8.868123,3.125646,2.300096,5.178887
160000,-0.797269,-1.209072,8.825027,2.988241,1.857348,5.530032
164000,-0.773327,-1.199495,8.841787,3.278317,1.384066,5.957513
168000,-0.818817,-1.194707,8.820239,3.308852,0.086356,6.461329
172000,-0.730232,-1.173159,8.820239,3.247783,-0.875476,6.369727
176000,-0.639252,-1.163582,8.827422,3.385188,-1.577766,6.384994
180000,-0.699107,-1.206678,8.808268,3.369921,-1.959446,6.446063
184000,-0.785298,-1.165976,8.870518,3.278317,-2.127385,6.522398
188000,-0.811634,-1.182736,8.810662,3.324119,-1.241889,6.934612
192000,-0.876278,-1.185130,8.731653,3.369921,-0.738072,7.530032
196000,-0.907402,-1.156399,8.583213,2.560760,-0.478530,7.988047
200000,-0.845153,-1.144428,8.511387,2.179081,-0.539598,8.400260
204000,-0.852336,-1.165976,8.614338,1.644730,-0.447995,8.690337
208000,-0.816423,-1.237802,8.511387,1.827936,-0.157919,9.041482
212000,-0.931344,-1.089362,8.525752,1.201982,-0.035782,9.575833
216000,-0.888249,-1.175553,8.470686,0.255417,-0.371659,9.346826
220000,-0.928950,-1.192312,8.494628,0.056943,-0.951812,9.713238
224000,-0.936133,-1.218649,8.580819,-0.217866,-2.295324,10.110184
228000,-0.952892,-1.259350,8.686164,-0.599545,-3.287690,10.354459
232000,-0.883460,-1.290475,9.014170,0.133279,-2.264789,11.133085
236000,-0.837971,-1.302446,9.162610,1.049310,-0.554866,11.331558
240000,-0.816423,-1.168370,9.121908,1.400455,0.666508,11.728504
244000,-0.893037,-1.213860,9.040505,1.659997,1.460402,11.972779
248000,-0.893037,-1.197101,9.112331,2.240149,2.345898,11.926978
252000,-0.952892,-1.273715,9.117120,2.713432,3.002386,12.125451
256000,-1.106121,-1.285686,9.145850,3.461524,3.429867,12.659802
260000,-1.237802,-1.254562,8.944737,3.950073,3.857348,12.965146
264000,-1.326388,-1.240196,8.786720,4.331753,3.735211,13.530031
268000,-1.467646,-1.276109,8.734048,4.148547,3.536737,14.232322
272000,-1.414973,-1.256956,8.719683,3.507325,3.002386,14.797207
276000,-1.431733,-1.359907,8.765172,2.896638,1.796279,15.148352
280000,-1.417367,-1.400608,8.698134,2.072211,-0.188453,15.789573
284000,-1.611298,-1.371878,8.729259,2.576027,-0.127385,16.140718
288000,-1.673547,-1.448492,8.710106,2.270684,-3.196087,16.873545
292000,-1.587356,-1.431733,8.844181,1.675264,-2.570133,17.896444
296000,-1.666364,-1.477222,8.906430,0.850837,-1.089217,19.087284
300000,-1.656788,-1.491588,8.813056,0.484424,-0.539598,20.049116
304000,-1.551443,-1.517924,8.892065,0.026409,1.338264,21.346827
308000,-1.589750,-1.489193,8.961497,-0.446873,3.460402,22.110186
312000,-1.637634,-1.527501,8.978256,-0.767484,5.307730,23.117819
316000,-1.575385,-1.539472,9.011775,-1.332370,6.468035,24.140718
320000,-1.520318,-1.628057,8.877700,-1.500308,7.872615,25.010948
324000,-1.733402,-1.640028,8.892065,-1.362904,8.544371,25.942245
328000,-1.754950,-1.680730,8.877700,-1.103362,7.948951,26.812475
332000,-1.807622,-1.709460,8.834604,-1.072828,7.384066,27.621635
336000,-1.948880,-1.747767,8.815451,-1.103362,6.712310,29.026215
340000,-2.075773,-1.781286,8.674192,-1.271301,5.338264,30.217054
344000,-2.133234,-1.786075,8.616732,-1.668247,3.384066,31.346827
348000,-2.102109,-1.829170,8.566454,-2.477408,1.719944,32.217056
352000,-2.133234,-1.891419,8.769960,-2.675881,1.032921,33.331558
356000,-2.183512,-1.934515,8.784326,-2.843820,1.032921,34.812473
360000,-2.310405,-1.939303,8.815451,-2.324736,1.414600,36.064384
364000,-2.406173,-1.932121,8.836999,-1.775118,0.773379,37.331558
368000,-2.336741,-1.953669,9.016563,-1.576644,1.506203,39.255222
372000,-2.274492,-1.996764,9.066842,-1.423972,3.384066,40.812473
376000,-2.276886,-1.965640,9.167398,-1.362904,5.017653,42.247589
380000,-2.212242,-1.865083,9.181764,-1.240766,7.032921,43.926979
384000,-2.207454,-1.872266,9.251195,-1.072828,9.521470,45.316292
388000,-2.054225,-1.793257,9.296685,-1.088094,11.750478,46.736137
392000,-2.027889,-1.742979,9.234436,-0.706415,13.597806,47.835377
396000,-1.857901,-1.721431,9.131485,-0.569010,15.490935,48.430798
400000,-1.831564,-1.637634,9.191340,-0.370538,16.544371,48.659801
404000,-1.790863,-1.623269,9.169792,-0.263667,17.032921,48.949879
408000,-1.829170,-1.762132,9.143456,-0.187331,17.002386,48.980415
412000,-1.896208,-1.735796,8.966286,-0.401072,16.468035,48.873543
416000,-1.972822,-1.802834,8.947132,-1.042293,15.353531,49.010948
420000,-2.044648,-1.707066,9.030929,-1.607178,14.758111,49.255222
424000,-2.102109,-1.778892,9.287108,-0.981224,16.941317,49.926979
428000,-2.308010,-1.850718,9.150639,-1.729316,16.239027,50.491863
432000,-2.379837,-1.867477,9.356541,-1.515576,13.887882,50.720871
436000,-2.516306,-1.965640,9.564836,-1.149163,13.628340,51.331558
440000,-2.636016,-1.917756,9.454702,0.576027,15.781012,52.614002
444000,-2.710236,-2.042254,9.339781,2.224883,16.406965,53.713238
448000,-2.911349,-2.018312,9.289502,3.476791,16.971851,54.843010
452000,-2.935291,-2.003947,9.289502,4.392821,17.414600,56.049118
456000,-3.205836,-2.092532,9.052477,5.507325,15.933683,57.362095
460000,-3.299210,-2.066196,8.889671,6.759233,13.796279,58.659801
464000,-3.397372,-2.171541,8.609550,7.553127,11.460402,60.217056
468000,-3.450045,-2.130840,8.525752,7.827936,9.429867,61.591103
472000,-3.464410,-2.214637,8.415619,7.721066,6.880249,63.117817
476000,-3.629610,-2.176329,8.497022,7.568394,3.231394,64.491867
480000,-3.653552,-2.217031,8.504205,7.400455,-0.615934,66.369728
484000,-3.512294,-2.171541,8.678981,7.308852,-2.677003,68.201790
488000,-3.584120,-2.207454,8.729259,7.064577,-3.883110,69.957512
492000,-3.521871,-2.240973,8.911219,7.217249,-4.967079,72.430794
496000,-3.526659,-2.267309,9.126697,7.553127,-3.547232,75.270493
500000,-3.521871,-2.291251,9.387665,7.843203,-0.982347,77.942245
504000,-3.325546,-2.284068,9.361329,8.545493,1.918417,80.995682
508000,-3.141193,-2.267309,9.313444,8.362287,3.643608,83.117821
512000,-2.806004,-2.298434,9.380483,9.156180,6.300097,84.949883
516000,-2.736573,-2.219425,9.253590,9.537860,8.926050,86.049118
520000,-2.659958,-2.190695,9.198523,9.934806,10.590172,87.301025
524000,-2.600103,-2.171541,9.148245,10.118012,11.445134,88.247589
528000,-2.604892,-2.161964,8.985439,9.766868,11.155058,88.751404
532000,-2.767697,-2.152387,8.841787,9.446257,9.674142,89.301025
536000,-2.916138,-2.308010,8.748413,9.003509,7.093989,90.507133
540000,-3.040636,-2.272097,8.925584,8.743966,4.513837,92.110184
544000,-3.112462,-2.238579,8.798691,8.392821,2.758112,93.759041
548000,-2.918532,-2.221819,8.789114,7.751600,1.384066,95.774307
552000,-2.729390,-2.231396,8.810662,7.125646,1.460402,98.079651
556000,-2.516306,-2.116474,8.860941,7.018775,2.529104,99.774307
560000,-2.308010,-2.080561,8.683769,6.453890,4.300097,101.163620
564000,-2.023100,-1.953669,8.726865,6.087478,6.834447,102.568199
568000,-1.836353,-1.927332,8.664616,5.782134,9.613073,103.438431
572000,-1.719037,-1.860295,8.674192,6.041677,12.101623,104.293388
576000,-1.623269,-1.833959,8.465898,5.843203,14.086355,104.583466
580000,-1.769315,-1.824382,8.391677,5.492058,14.544371,104.720871
584000,-1.910573,-1.833959,8.063671,4.896638,12.559638,104.888809
588000,-2.102109,-1.869871,8.190564,4.163814,8.590172,104.675072
592000,-2.260126,-1.896208,8.286332,3.950073,3.582539,105.285759
596000,-2.358289,-1.841141,8.185776,3.461524,-1.318224,106.171257
600000,-2.382231,-1.838747,8.166622,3.461524,-5.593033,106.904076
604000,-2.351106,-1.855506,8.161834,3.385188,-9.486164,108.155983
608000,-2.272097,-1.853112,8.444349,3.889004,-11.989981,109.316292
612000,-2.082955,-1.850718,8.465898,4.102745,-13.715171,110.018585
616000,-1.929727,-1.800440,8.489840,4.224883,-14.325858,110.415527
620000,-1.829170,-1.872266,8.544906,4.850837,-13.913645,110.690338
624000,-1.790863,-1.924938,8.566454,5.186715,-13.638836,111.224686
628000,-1.810017,-1.984793,8.753201,5.751600,-13.226622,111.194153
632000,-1.838747,-2.027889,8.762778,6.301218,-12.661736,111.438431
636000,-1.742979,-1.994370,8.628703,6.759233,-12.173186,111.224686
640000,-1.939303,-2.104503,8.556877,6.820302,-13.241889,110.965149
644000,-2.161964,-2.188300,8.513782,6.713432,-15.364026,111.010948
648000,-2.461239,-2.293645,8.801085,6.362287,-18.738071,111.560570
652000,-2.633622,-2.406173,9.018958,6.835569,-21.547232,112.736137
656000,-2.719813,-2.451663,9.057265,7.950073,-23.760973,114.675072
660000,-2.686294,-2.475605,9.054871,9.721066,-23.654102,116.323929
664000,-2.609680,-2.329558,9.052477,9.263050,-23.119751,118.430794
668000,-2.571373,-2.449268,9.033323,10.102745,-21.073950,120.705605
672000,-2.501941,-2.384625,8.753201,10.667630,-18.967079,122.552933
676000,-2.360683,-2.379837,8.480263,10.774501,-17.348759,124.217056
680000,-2.312799,-2.312799,8.329428,10.805036,-14.860209,125.942245
684000,-2.355895,-2.324770,8.157045,10.072210,-13.089217,127.636902
688000,-2.284068,-2.240973,8.022970,9.492058,-11.699904,129.331558
692000,-2.176329,-2.171541,7.869741,7.614195,-11.241889,131.423157
696000,-1.905785,-2.104503,7.769185,6.194348,-11.119752,133.224686
700000,-1.752556,-2.013524,7.603985,4.652363,-11.654102,134.629272
704000,-1.489193,-1.987187,7.489063,3.095111,-13.852576,135.438431
708000,-1.185130,-1.891419,7.582437,1.446256,-15.180820,135.896439
712000,-0.984017,-1.884237,7.730877,0.118012,-17.119751,136.140717
716000,-0.730232,-1.862689,7.984663,-0.355270,-18.417461,136.232315
720000,-0.543484,-1.764527,8.233660,-0.126262,-18.005247,136.461334
724000,-0.306458,-1.642422,8.145074,0.179081,-16.661736,136.384995
728000,-0.016759,-1.546654,8.027759,0.698165,-14.554866,135.743774
732000,0.088585,-1.450886,7.876924,0.652363,-12.829675,135.178894
736000,0.079009,-1.412579,7.855376,0.377554,-11.058682,134.537659
740000,-0.021548,-1.407791,7.572860,-0.034660,-10.768606,134.140717
744000,0.093374,-1.414973,7.592013,-0.034660,-11.241889,133.972778
748000,0.090980,-1.410185,7.666234,-0.156797,-11.593034,133.652176
752000,0.122104,-1.326388,7.486669,-0.065194,-11.379293,133.484238
756000,0.146046,-1.331176,7.223307,-0.843820,-11.715171,133.285751
760000,0.306458,-1.434127,7.213730,-1.851454,-13.211354,132.736145
764000,0.342371,-1.410185,7.065289,-3.057560,-14.951813,132.110184
768000,0.402226,-1.472434,7.096414,-4.828553,-16.035782,131.667435
772000,0.253785,-1.405396,7.366959,-6.798018,-16.799141,131.743774
776000,0.284910,-1.517924,7.606379,-7.668247,-15.699904,132.583466
780000,0.222661,-1.465251,7.773973,-8.080462,-13.226622,133.865906
784000,0.428562,-1.491588,7.888895,-8.569011,-10.280057,134.843002
788000,0.500388,-1.458069,7.762002,-9.179698,-7.073949,135.438431
792000,0.713472,-1.450886,7.912837,-10.034659,-3.867843,136.125458
796000,0.687136,-1.465251,7.900866,-10.828553,-1.669369,136.797211
800000,0.919373,-1.422156,8.073248,-11.256034,0.086356,137.224686
804000,1.039083,-1.467646,8.092402,-11.194965,2.040554,137.056747
808000,1.151611,-1.474828,7.943961,-11.271301,3.399333,136.171249
812000,1.201889,-1.477222,7.800309,-11.652981,3.155058,135.239960
816000,1.156399,-1.371878,7.934384,-11.790385,3.063455,134.552933
820000,1.094150,-1.479617,7.984663,-12.049927,1.735211,133.957520
824000,0.902614,-1.549049,8.025364,-11.851454,-1.944179,133.591095
828000,0.981623,-1.534683,8.049306,-11.164431,-5.272423,133.652176
832000,1.142034,-1.482011,8.066066,-9.958323,-7.241889,133.530029
836000,1.280898,-1.383849,8.135497,-9.637713,-8.096850,133.423157
840000,1.489193,-1.256956,8.087613,-9.256034,-6.753339,133.270493
844000,1.798046,-1.118092,8.221688,-8.569011,-4.142652,133.255219
848000,1.972822,-0.991199,8.018182,-7.790385,-0.234255,132.690338
852000,2.154782,-0.900220,7.733272,-8.202599,2.895516,132.033844
856000,2.396596,-0.758962,7.790732,-8.630079,5.368799,131.285751
860000,2.602497,-0.718261,7.735666,-8.569011,7.521471,130.171249
864000,2.844312,-0.514753,7.687782,-8.507942,10.345898,128.766678
868000,2.985569,-0.440533,7.429208,-10.385805,13.842080,127.362091
872000,3.117251,-0.390255,7.271191,-12.446874,15.399332,125.652168
876000,3.301604,-0.306458,7.139510,-14.401073,15.277195,123.636902
880000,3.440468,-0.220267,7.173028,-15.744584,15.216126,121.087288
884000,3.351882,-0.162806,7.062895,-17.866720,14.269562,118.369728
888000,3.481169,-0.114922,6.998251,-19.851452,13.093989,115.743774
892000,3.586514,-0.038307,6.957550,-21.423971,12.681775,113.133087
896000,3.620033,-0.033519,6.873753,-23.133896,12.177958,110.415527
900000,3.634398,-0.009577,6.885724,-24.904888,10.315363,107.117821
904000,3.445256,0.014365,6.909666,-26.523209,9.078722,104.232323
908000,3.385401,0.016759,6.924031,-26.981224,8.361164,101.759041
912000,3.227384,-0.055067,6.840234,-28.080460,6.544371,99.530029
916000,3.270479,0.225055,7.103596,-32.004124,7.216127,98.491867
920000,3.861847,0.086191,8.087613,-33.561375,7.032921,97.896446
924000,4.764462,0.483629,8.149862,-24.462139,-3.012881,98.354462
928000,6.363788,1.355118,8.525752,-16.462139,-20.203720,97.530029
932000,8.389283,1.951274,9.789890,-9.072827,-43.776241,92.781944
936000,10.627861,2.264915,12.136209,-2.049927,-67.944176,84.400261
940000,12.751518,2.636016,14.901511,8.179081,-93.104477,71.301025
944000,13.790602,2.841918,15.713146,15.232515,-112.738068,58.537666
948000,14.444219,3.045424,15.782578,24.301220,-128.310593,44.980415
952000,14.834474,2.997540,15.732300,34.301220,-133.226624,30.110186
956000,14.523228,2.887407,15.234305,41.904274,-129.760971,16.614002
960000,13.589489,2.774880,14.135366,44.774502,-119.928909,4.980413
964000,12.279860,2.501941,12.986150,43.705799,-106.509064,-4.469968
968000,10.769119,2.183512,11.868058,41.125645,-91.440361,-11.385999
972000,9.263166,1.821988,10.757148,38.056946,-78.249519,-16.210426
976000,7.924808,1.419762,9.406818,32.805035,-64.066315,-18.500502
980000,6.737284,1.173159,8.604761,26.682898,-43.211353,-18.118822
984000,5.700594,0.912191,7.984663,20.194349,-19.119751,-16.683708
988000,4.781221,0.646434,7.252037,14.484425,5.017653,-13.905083
992000,4.192247,0.490811,6.593631,9.156180,30.559637,-11.202793
996000,3.385401,0.442927,5.944803,1.843203,49.918415,-8.866915
1000000,2.638410,0.407014,5.473145,-4.920156,62.788647,-7.660808
1004000,1.733402,0.306458,5.195418,-11.546110,71.246666,-6.897449
1008000,0.897826,0.208296,5.202600,-18.080460,77.124527,-5.920350
1012000,-0.062249,0.079009,5.343858,-24.752216,77.231400,-5.309663
1016000,-0.926556,-0.174777,5.590461,-29.118629,73.826820,-4.134090
1020000,-1.637634,-0.373495,5.501875,-31.118629,67.124527,-2.286762
1024000,-2.205060,-0.505177,5.312734,-32.095726,58.926048,-0.103556
1028000,-2.489970,-0.464475,5.092467,-33.317101,51.445133,2.033848
1032000,-2.674323,-0.586579,5.188235,-33.836185,43.552006,3.362093
1036000,-2.707842,-0.598550,5.461174,-34.233131,37.414600,4.827742
1040000,-2.995146,-0.653617,5.758055,-33.683514,27.109257,6.262856
1044000,-2.837129,-0.624887,6.033388,-31.988857,15.078722,7.072017
1048000,-2.518700,-0.634463,6.445191,-30.721684,5.399333,7.697971
1052000,-2.099715,-0.667982,7.153875,-29.637711,-1.593034,7.102551
1056000,-1.841141,-0.610521,7.965509,-28.538475,-7.409827,6.415528
1060000,-1.668759,-0.634463,8.829816,-26.370537,-12.875477,5.407895
1064000,-1.458069,-0.749385,9.849746,-23.347635,-16.463263,4.766673
1068000,-1.300052,-0.780510,10.575189,-20.538475,-16.844942,4.812475
1072000,-1.288081,-0.790087,10.831368,-17.454506,-16.951813,5.163620
1076000,-1.144428,-0.773327,11.159374,-14.385804,-16.325857,5.377360
1080000,-0.957681,-0.794875,11.451467,-11.546110,-13.608301,6.293391
1084000,-0.746991,-0.617704,11.571177,-8.782751,-10.234255,7.010948
1088000,-0.476446,-0.541090,11.645397,-5.775118,-6.799140,7.530032
1092000,-0.234632,-0.383072,11.513716,-3.759850,-2.921278,8.247588
1096000,-0.088585,-0.248997,11.561600,-1.897255,0.697043,8.522398
1100000,0.172383,-0.181959,11.616667,0.576027,4.116890,8.751406
1104000,0.241814,-0.052672,11.504139,2.835569,6.345898,9.010947
1108000,0.373495,0.033519,11.156980,4.774501,6.391699,8.659802
1112000,0.658405,0.181959,11.037270,6.423356,7.445135,7.988047
1116000,0.797269,0.270545,10.709264,7.751600,6.987119,6.858276
1120000,0.727837,0.450110,10.388441,8.774501,3.826814,5.682703
1124000,0.677559,0.584185,9.868899,9.385188,-0.722805,4.232322
1128000,0.600945,0.562637,9.545682,9.186714,-4.493797,2.766673
1132000,0.488417,0.600945,9.421184,8.805036,-7.638835,2.079650
1136000,0.474052,0.478840,9.136273,8.331753,-9.333492,1.697971
1140000,0.380678,0.593762,8.999804,7.919539,-9.516698,1.453696
1144000,0.229843,0.672771,8.815451,7.553127,-9.379293,1.545299
1148000,0.344765,0.701501,8.492233,7.369921,-9.623569,1.423162
1152000,0.256180,0.770933,8.339005,6.652363,-8.173186,1.423162
1156000,0.253785,0.727837,8.317456,6.087478,-6.615934,1.239955
1160000,0.251391,0.651223,8.240842,5.705799,-3.791507,1.392627
1164000,0.102951,0.629675,8.207323,5.385188,-1.348759,1.957513
1168000,0.040701,0.593762,7.936779,5.079844,0.071089,1.896444
1172000,0.215478,0.667982,7.905654,4.224883,1.261928,1.911711
1176000,0.287304,0.574608,7.812280,4.530226,3.384066,1.652169
1180000,0.098162,0.569820,7.484274,3.965340,2.864982,1.072016
1184000,0.153229,0.471658,7.369353,2.774501,1.475669,0.491864
1188000,0.110133,0.428562,7.331046,1.965340,0.071089,-0.454701
1192000,-0.002394,0.325611,7.426814,0.652363,-0.371659,-0.653174
1196000,-0.021548,0.246603,7.287950,-0.859087,-1.486163,-1.004319
1200000,0.114922,0.181959,7.371747,-1.500308,-2.371660,-1.111190
1204000,0.124498,0.258574,7.575254,-2.599545,-2.402194,-1.187526
1208000,0.131681,0.323217,7.709330,-4.019392,-2.463263,-1.721877
1212000,0.165200,0.320823,7.845799,-4.385805,-2.463263,-2.317297
1216000,0.100556,0.344765,7.955932,-4.752217,-2.035782,-2.775312
1220000,0.062249,0.316035,8.099585,-5.164431,-1.867843,-3.126457
1224000,0.055067,0.344765,8.293514,-5.301835,-1.470896,-3.721877
1228000,-0.095768,0.275333,8.396465,-5.271301,-2.005247,-3.828747
1232000,-0.215478,0.277727,8.621520,-5.317102,-2.753339,-3.889816
1236000,-0.244209,0.213084,8.779537,-5.591911,-3.852576,-3.889816
1240000,-0.241814,0.210690,8.923190,-5.637713,-5.119751,-3.874548
1244000,-0.208296,0.148441,9.141062,-5.805653,-6.921278,-3.981419
1248000,-0.213084,0.062249,9.418790,-5.576645,-9.562500,-3.798213
1252000,-0.088585,0.031125,9.689334,-5.378171,-11.302958,-4.103556
1256000,0.155623,-0.074220,9.974244,-4.431606,-10.692270,-4.439434
1260000,0.146046,-0.043096,10.223241,-3.698782,-10.203721,-4.240961
1264000,0.146046,-0.028730,10.414778,-1.805652,-9.180820,-4.500503
1268000,0.191536,0.045490,10.321404,-0.019392,-7.852575,-4.408900
1272000,0.167594,-0.057461,10.374076,1.858470,-7.150285,-4.500503
1276000,0.090980,-0.081403,10.223241,3.721066,-6.127385,-4.500503
1280000,0.052672,0.033519,10.117896,5.568394,-5.302957,-4.225693
1284000,0.021548,-0.004788,9.880871,6.820302,-5.135018,-3.920350
1288000,-0.031125,0.019154,9.785102,7.675264,-4.157919,-3.416533
1292000,0.000000,0.119710,9.466674,8.408089,-3.272423,-2.943251
1296000,-0.019154,0.143652,9.277532,8.698165,-2.524331,-2.637907
1300000,0.023942,0.320823,8.947132,8.499692,-2.173186,-2.408900
1304000,0.062249,0.268151,8.757990,8.087478,-1.257156,-2.225693
1308000,0.071826,0.339977,8.432379,7.385188,-0.615934,-2.118823
1312000,0.076614,0.407014,8.078036,6.423356,-0.875476,-2.240961
1316000,0.050278,0.457293,8.001422,5.522593,-1.318224,-2.393632
1320000,0.117316,0.452504,8.063671,4.591295,-2.890743,-2.485235
1324000,0.079009,0.359130,8.224083,4.087478,-3.608301,-2.760045
1328000,0.019154,0.409408,8.259995,3.782134,-3.516698,-2.469968
1332000,-0.107739,0.471658,8.228871,3.049310,-3.257156,-2.271495
1336000,-0.112527,0.378284,8.274361,2.682898,-2.371660,-1.630274
1340000,-0.203507,0.395043,8.152257,1.904272,-1.883110,-1.156991
1344000,-0.160412,0.476446,8.147469,0.957707,-1.959446,-0.653174
1348000,-0.146046,0.507571,8.044518,0.362287,-2.463263,-0.683709
1352000,-0.153229,0.440533,8.097190,-0.065194,-2.799140,-0.378365
1356000,-0.263362,0.450110,8.135497,-0.630080,-3.104484,-0.103556
1360000,-0.239420,0.409408,8.169016,-1.530843,-2.585400,0.262856
1364000,-0.100556,0.464475,8.245630,-2.217866,-2.218988,0.278123
1368000,-0.057461,0.430956,8.360553,-2.828552,-2.417461,-0.073022
1372000,-0.102951,0.361524,8.451532,-3.256034,-3.150285,-0.485235
1376000,-0.213084,0.232238,8.707711,-3.790385,-4.860209,-0.531037
1380000,-0.251391,0.110133,9.011775,-3.423972,-6.722805,-0.561571
1384000,-0.304064,0.026336,9.284714,-2.507942,-7.638835,-0.149358
1388000,-0.244209,-0.031125,9.337387,-1.546110,-8.096850,0.186520
1392000,-0.107739,-0.105345,9.524135,-0.706415,-7.928911,0.476597
1396000,-0.033519,-0.047884,9.617508,0.484424,-7.333491,1.194154
1400000,-0.023942,0.007183,9.483433,1.583661,-6.600667,1.209421
1404000,-0.019154,0.047884,9.457097,1.995875,-5.684637,1.865910
1408000,0.100556,0.088585,9.392453,2.789768,-3.623568,2.094917
1412000,0.184354,0.102951,9.227253,3.721066,-0.875476,2.354459
1416000,0.158017,0.143652,9.011775,4.209615,1.246661,2.614001
1420000,0.227449,0.248997,8.748413,4.118012,2.712310,2.919345
1424000,0.134075,0.220267,8.619126,3.950073,3.521470,2.919345
1428000,0.172383,0.301669,8.564059,3.675264,3.796279,2.949879
1432000,0.153229,0.426168,8.362947,2.698165,3.429867,2.949879
1436000,0.220267,0.553061,8.295909,1.721066,2.498570,2.965146
1440000,0.258574,0.548272,8.252813,1.354653,2.590173,2.552932
1444000,0.277727,0.562637,8.135497,0.728699,2.116890,2.644536
1448000,0.213084,0.529119,8.051701,0.087478,1.536737,2.201787
1452000,0.287304,0.493206,7.843405,-0.843820,0.880249,1.759039
1456000,0.263362,0.517148,7.903260,-2.507942,-0.325858,1.239955
1460000,0.258574,0.454898,8.180987,-4.034659,-1.684637,0.766673
1464000,0.112527,0.277727,8.252813,-4.462141,-3.501430,0.384994
1468000,0.033519,0.246603,8.518570,-4.752217,-4.890743,0.140719
1472000,0.122104,0.186748,8.695741,-4.798018,-5.715171,-0.057755
1476000,0.064643,0.146046,8.829816,-4.278934,-5.959445,-0.073022
1480000,0.023942,0.059855,9.126697,-3.790385,-6.066316,0.094917
1484000,-0.052672,0.007183,9.076419,-3.164430,-5.822041,0.323925
1488000,-0.081403,-0.052672,9.081207,-2.691148,-5.425095,0.705604
1492000,0.136469,-0.043096,9.155427,-2.187331,-5.379293,1.072016
1496000,0.193930,-0.045490,9.222465,-1.698782,-5.196087,1.224688
1500000,0.390255,0.071826,9.208099,-0.843820,-4.218988,1.148352
1504000,0.483629,0.112527,9.227253,-0.446873,-2.325858,1.407894
1508000,0.588974,0.203507,9.148245,0.743966,0.223760,1.285757
1512000,0.550666,0.280122,8.951921,1.400455,1.628341,0.827742
1516000,0.495600,0.337582,8.750807,1.217249,2.284829,0.476597
1520000,0.481235,0.435745,8.599973,1.064577,2.926050,0.262856
1524000,0.344765,0.368707,8.501810,0.667630,2.177959,-0.271495
1528000,0.325611,0.416591,8.401254,-0.019392,0.727577,-0.271495
1532000,0.306458,0.375890,8.537724,-0.813286,-0.020514,-0.698976
1536000,0.237026,0.428562,8.437167,-1.271301,-0.982347,-0.760045
1540000,0.198719,0.407014,8.525752,-1.790385,-1.364026,-0.653174
1544000,0.294487,0.373495,8.662222,-2.141530,-0.860209,-0.805846
1548000,0.368707,0.351948,8.616732,-3.011759,-0.554866,-0.531037
1552000,0.363919,0.332794,8.657434,-3.362904,-0.203721,-0.760045
1556000,0.325611,0.325611,8.633492,-3.927789,0.376432,-0.729510
1560000,0.294487,0.265756,8.628703,-3.775118,0.956585,-0.561571
1564000,0.361524,0.210690,8.686164,-3.271301,1.490936,-0.515770
1568000,0.244209,0.177171,8.690952,-2.584278,1.872615,-0.683709
1572000,0.268151,0.205901,8.664616,-2.660614,1.216127,-0.958518
1576000,0.248997,0.136469,8.822633,-2.813286,0.544371,-1.324930
1580000,0.153229,0.272939,8.822633,-3.042293,-0.356392,-1.385999
1584000,0.095768,0.253785,8.805874,-2.828552,-1.226621,-1.691342
1588000,0.014365,0.222661,8.746018,-2.431606,-2.310591,-1.660808
1592000,-0.002394,0.268151,8.829816,-2.004125,-3.333492,-1.492869
1596000,-0.009577,0.143652,8.769960,-1.576644,-5.241889,-1.584472
1600000,0.007183,0.167594,8.918402,-1.561377,-6.585400,-1.538671
1604000,-0.038307,0.074220,9.090784,-1.652980,-6.997613,-1.324930
1608000,-0.019154,-0.019154,9.145850,-1.500308,-7.119751,-0.927984
1612000,0.105345,-0.043096,9.076419,-1.240766,-7.135018,-0.790579
1616000,0.179565,-0.050278,9.246407,-0.767484,-6.539598,-0.546304
1620000,0.258574,-0.131681,9.337387,0.026409,-4.585400,-0.240961
1624000,0.337582,-0.004788,9.332599,0.972974,-2.127385,0.049116
1628000,0.323217,0.023942,9.028535,1.308852,-0.906011,-0.149358
1632000,0.383072,0.047884,9.011775,1.766867,-0.493797,0.033849
1636000,0.294487,0.071826,8.793902,1.522592,0.177959,-0.225693
1640000,0.323217,0.143652,8.932767,1.354653,0.177959,-0.210426
1644000,0.423774,0.215478,8.779537,1.095111,-0.051049,-0.393632
1648000,0.428562,0.268151,8.731653,0.881371,-0.951812,-0.851648
1652000,0.323217,0.316035,8.583213,0.881371,-1.531965,-1.324930
1656000,0.258574,0.383072,8.362947,0.637096,-2.325858,-1.431800
1660000,0.201113,0.440533,8.224083,-0.019392,-4.005247,-1.844014
1664000,0.181959,0.416591,8.406042,-0.706415,-5.913644,-2.195159
1668000,0.110133,0.371101,8.279149,-1.317102,-7.073949,-2.286762
1672000,0.052672,0.359130,8.410830,-2.049927,-8.295323,-2.057755
1676000,0.134075,0.320823,8.475474,-2.569010,-8.707538,-1.737144
1680000,0.169988,0.248997,8.497022,-3.332370,-7.715171,-1.569205
1684000,0.217872,0.191536,8.710106,-3.347636,-7.287690,-1.401266
1688000,0.347159,0.167594,8.872911,-2.706415,-6.264789,-1.156991
1692000,0.392649,0.110133,8.863335,-2.401072,-4.646469,-0.775312
1696000,0.380678,0.031125,8.899248,-2.202598,-3.287690,-0.653174
1700000,0.354342,0.031125,8.884883,-1.805652,-1.180820,-0.317297
1704000,0.328006,-0.019154,8.937555,-2.141530,0.345898,0.155986
1708000,0.421380,0.035913,8.841787,-2.095728,1.261928,0.400261
1712000,0.445322,0.088585,8.717288,-1.866720,2.071089,0.125452
1716000,0.536301,0.114922,8.899248,-1.759850,1.948951,0.003314
1720000,0.521936,0.138864,8.868123,-1.133896,1.689409,-0.469968
1724000,0.469264,0.239420,8.911219,-0.569010,1.857348,-0.515770
1728000,0.335188,0.258574,8.686164,-0.278934,1.719944,-1.004319
1732000,0.229843,0.371101,8.724471,-0.416339,1.216127,-1.355464
1736000,0.167594,0.442927,8.693346,-0.691148,0.773379,-1.523403
1740000,0.102951,0.421380,8.633492,-0.721682,-0.112117,-1.569205
1744000,0.083797,0.363919,8.564059,-0.996492,-0.906011,-1.462335
1748000,0.021548,0.363919,8.604761,-1.546110,-1.226621,-1.492869
1752000,0.050278,0.330400,8.628703,-1.805652,-1.348759,-1.447067
1756000,0.009577,0.316035,8.635885,-2.141530,-1.318224,-1.095922
1760000,0.050278,0.217872,8.769960,-1.790385,-1.516698,-1.263861
1764000,0.196325,0.213084,8.913613,-1.500308,-1.257156,-1.218060
1768000,0.081403,0.119710,8.973468,-0.950690,-1.196087,-1.034854
1772000,0.088585,0.100556,9.109938,-0.370538,-1.073950,-0.958518
1776000,-0.004788,0.067038,9.038112,-0.080461,-0.554866,-0.637907
1780000,0.052672,0.038307,8.980651,0.545493,-0.035782,-0.531037
1784000,0.026336,0.067038,8.937555,0.514959,-0.447995,-0.363098
1788000,0.047884,0.126893,8.906430,0.499691,-0.936545,-0.302029
1792000,0.067038,0.098162,8.916007,0.682898,-1.455629,-0.088289
1796000,-0.011971,0.074220,8.825027,0.667630,-1.913644,0.110184
1800000,0.117316,0.169988,8.779537,0.362287,-1.852576,0.354459
1804000,0.100556,0.201113,8.683769,0.056943,-1.669369,0.491864
1808000,0.169988,0.210690,8.602366,-0.538476,-1.562499,0.522398
1812000,0.232238,0.119710,8.738836,-0.691148,-1.394560,0.659803
1816000,0.241814,0.196325,8.650250,-1.256034,-1.165553,0.781940
1820000,0.344765,0.208296,8.688558,-1.591912,-1.043415,0.843009
1824000,0.483629,0.131681,8.714894,-1.668247,-0.875476,0.781940
1828000,0.414197,0.117316,8.781932,-1.332370,-0.524331,0.644536
1832000,0.450110,0.098162,8.899248,-1.179698,-0.325858,0.812474
1836000,0.555455,0.136469,8.944737,-1.057560,-0.112117,0.430795
1840000,0.565032,0.138864,8.786720,-0.752217,0.101623,0.430795
1844000,0.572214,0.193930,8.872911,-0.645346,0.055821,0.125452
1848000,0.584185,0.260968,8.925584,-0.385804,0.254295,-0.011953
1852000,0.622492,0.263362,8.724471,-0.340003,0.330631,-0.408900
1856000,0.524330,0.304064,8.698134,-0.233133,-0.005247,-0.637907
1860000,0.529119,0.385466,8.746018,-0.004125,-0.722805,-1.065388
1864000,0.486023,0.351948,8.700529,0.209615,-1.089217,-1.874548
1868000,0.402226,0.371101,8.664616,0.194348,-1.318224,-2.302029
1872000,0.158017,0.344765,8.611943,-0.141530,-1.745705,-2.454701
1876000,0.165200,0.337582,8.676587,-0.767484,-2.157919,-2.531037
1880000,0.043096,0.268151,8.698134,-1.103362,-2.600667,-2.149358
1884000,-0.038307,0.234632,8.748413,-1.454507,-2.707537,-1.950884
1888000,-0.014365,0.217872,8.765172,-1.759850,-3.043415,-1.752411
1892000,0.040701,0.174777,8.911219,-1.927789,-2.615934,-1.156991
1896000,0.088585,0.232238,8.774749,-2.278934,-1.883110,-1.050121
1900000,0.086191,0.146046,8.851364,-2.263667,-1.867843,-1.202793
1904000,0.057461,0.028730,8.959103,-1.851454,-1.852576,-0.775312
1908000,-0.093374,-0.043096,9.160215,-0.798018,-1.562499,-0.164625
1912000,-0.134075,-0.062249,8.882488,-0.278934,-1.104484,0.293391
1916000,-0.062249,0.004788,9.006987,-0.645346,-0.936545,0.797207
1920000,0.093374,-0.083797,9.095572,-0.340003,-1.028148,1.087284
1924000,0.000000,-0.119710,9.026140,0.041676,-1.241889,1.423162
1928000,0.179565,-0.090980,9.083601,0.362287,-1.898377,1.682703
1932000,0.313640,-0.007183,8.963891,0.606562,-1.440362,1.759039
1936000,0.450110,0.093374,8.805874,0.728699,-0.051049,1.881177
1940000,0.500388,0.186748,8.856153,0.591295,0.620707,1.743772
1944000,0.469264,0.205901,8.619126,0.576027,1.063455,1.560566
1948000,0.550666,0.189142,8.556877,0.423356,1.368798,1.362093
1952000,0.622492,0.167594,8.547300,0.011142,1.582539,1.148352
1956000,0.703895,0.275333,8.631097,-0.294202,2.529104,1.041482
1960000,0.713472,0.280122,8.674192,-0.691148,3.353531,0.690337
1964000,0.632069,0.318429,8.559271,-0.904888,3.979486,0.522398
1968000,0.665588,0.399832,8.688558,-1.240766,4.483303,0.262856
1972000,0.663194,0.433351,8.635885,-1.408705,4.971852,-0.225693
1976000,0.600945,0.469264,8.568848,-1.622446,5.552005,-0.393632
1980000,0.557849,0.440533,8.602366,-1.790385,5.460402,-0.576838
1984000,0.450110,0.423774,8.494628,-2.217866,5.521471,-0.912716
1988000,0.464475,0.301669,8.319851,-2.767484,5.399333,-1.279129
1992000,0.320823,0.304064,8.334216,-3.378171,4.803913,-1.691342
1996000,0.265756,0.277727,8.259995,-3.607178,2.956585,-2.011953
