time_us,ax,ay,az,gx,gy,gz
0,-1.213860,-1.841141,8.925584,0.255417,0.483302,0.919345
4000,-1.185130,-1.824382,8.834604,1.232516,-0.188453,1.133085
8000,-1.139640,-1.802834,8.872911,1.889004,-0.493797,1.194154
12000,-1.146823,-1.766921,8.712500,2.408089,-0.493797,1.301024
16000,-1.010353,-1.759738,8.626308,2.606562,-0.829675,1.301024
20000,-0.979228,-1.642422,8.542512,2.682898,-0.280056,1.209421
24000,-0.979228,-1.596933,8.599973,2.438623,-0.539598,1.316291
28000,-1.007959,-1.616086,8.599973,2.285951,0.071089,0.873543
32000,-1.041478,-1.525106,8.461109,2.118012,0.498570,1.026215
36000,-1.015141,-1.539472,8.434772,1.858470,0.651241,0.949879
40000,-1.039083,-1.508347,8.339005,1.415722,1.674142,1.010948
44000,-1.063026,-1.474828,8.372523,1.186714,1.964218,1.041482
48000,-1.086968,-1.426944,8.334216,0.835569,2.300096,0.995681
52000,-1.110910,-1.448492,8.233660,0.621829,2.376432,0.904078
56000,-1.189918,-1.541866,8.207323,-0.034660,2.101623,0.888810
60000,-1.302446,-1.520318,8.068460,-0.645346,1.445134,0.720871
64000,-1.268927,-1.563414,8.173804,-1.301835,0.437501,0.736139
68000,-1.300052,-1.599327,8.310274,-1.759850,-0.280056,0.797207
72000,-1.319205,-1.611298,8.441956,-2.156797,-1.058682,0.919345
76000,-1.288081,-1.620875,8.530540,-1.958324,-1.379293,1.331558
80000,-1.405396,-1.704672,8.571242,-2.126262,-1.409827,1.713238
84000,-1.367089,-1.735796,8.592790,-2.049927,-0.860209,1.881177
88000,-1.398214,-1.742979,8.619126,-1.958324,-0.738072,2.033848
92000,-1.364695,-1.778892,8.743625,-1.759850,-0.478530,2.446062
96000,-1.321599,-1.807622,8.707711,-1.423972,0.040554,2.705604
100000,-1.256956,-1.845930,8.698134,-1.149163,0.590173,2.843009
104000,-1.225831,-1.810017,8.791509,-0.874354,1.246661,2.888810
108000,-1.225831,-1.869871,8.781932,-0.767484,1.887883,3.102551
112000,-1.280898,-1.798046,8.856153,-0.584278,1.842081,3.239955
116000,-1.367089,-1.798046,8.889671,-0.065194,1.521470,3.087284
120000,-1.244985,-1.769315,8.868123,-0.004125,1.246661,3.301024
124000,-1.297657,-1.778892,8.899248,-0.049927,1.322997,3.331558
128000,-1.290475,-1.769315,9.021352,0.316485,2.437501,3.377360
132000,-1.247379,-1.781286,8.935161,0.698165,3.292463,3.575833
136000,-1.350330,-1.766921,9.004593,0.866104,4.345898,3.682703
140000,-1.321599,-1.740585,8.872911,1.201982,5.521471,3.911711
144000,-1.419762,-1.723825,8.772355,1.324119,6.147425,4.064383
148000,-1.565808,-1.687912,8.700529,1.003508,6.406967,4.308658
152000,-1.577779,-1.692701,8.729259,0.728699,6.025287,4.751406
156000,-1.565808,-1.747767,8.777143,0.911905,5.719944,4.919345
160000,-1.577779,-1.814805,8.820239,1.140913,5.658875,5.316291
164000,-1.534683,-1.675941,8.836999,1.659997,5.750478,5.636902
168000,-1.563414,-1.750161,8.858546,2.056943,5.109257,6.064383
172000,-1.515530,-1.750161,8.882488,2.606562,4.284829,6.232322
176000,-1.467646,-1.788469,8.942344,3.079844,3.964219,6.400261
180000,-1.412579,-1.716643,8.918402,3.461524,4.223761,6.995681
184000,-1.314417,-1.628057,8.825027,3.751600,4.590173,6.888811
188000,-1.276109,-1.714248,8.774749,3.782134,5.124524,7.056749
192000,-1.369483,-1.707066,8.710106,3.736333,5.536737,7.056749
196000,-1.352724,-1.757344,8.757990,3.522592,5.842081,7.468963
200000,-1.450886,-1.723825,8.616732,3.675264,6.376432,7.591100
204000,-1.403002,-1.778892,8.717288,3.644730,6.498569,8.155986
208000,-1.438915,-1.740585,8.695741,3.614195,6.697043,8.308658
212000,-1.446098,-1.752556,8.729259,3.415722,6.468035,8.446062
216000,-1.422156,-1.790863,8.712500,3.751600,6.208493,8.675070
220000,-1.510741,-1.855506,8.719683,3.904272,5.032921,8.568199
224000,-1.503559,-1.817199,8.813056,3.965340,4.177959,8.934611
228000,-1.532289,-1.810017,8.769960,4.133279,3.445134,9.224688
232000,-1.529895,-1.795651,8.698134,4.591295,2.727577,9.468963
236000,-1.493982,-1.853112,8.688558,5.232516,2.666508,9.697970
240000,-1.563414,-1.728614,8.655039,5.324119,2.758112,9.789574
244000,-1.515530,-1.788469,8.674192,5.553127,3.200860,10.049115
248000,-1.582567,-1.659182,8.645462,5.522593,3.918417,10.415527
252000,-1.539472,-1.704672,8.707711,5.492058,4.529104,11.010947
256000,-1.534683,-1.671153,8.676587,5.782134,5.460402,11.423162
260000,-1.541866,-1.651999,8.638280,5.889005,6.406967,11.682703
264000,-1.613692,-1.680730,8.530540,5.782134,7.170325,11.728504
268000,-1.613692,-1.651999,8.664616,5.751600,7.903150,12.018581
272000,-1.663970,-1.654393,8.451532,5.766867,8.208493,12.247588
276000,-1.762132,-1.663970,8.437167,6.026409,7.887883,12.430795
280000,-1.865083,-1.642422,8.295909,5.629463,7.170325,12.659802
284000,-1.932121,-1.628057,8.403648,5.430989,6.803913,12.797207
288000,-2.080561,-1.750161,8.437167,5.324119,6.406967,13.316291
292000,-2.152387,-1.721431,8.322245,5.171447,5.735211,13.804840
296000,-2.375048,-1.793257,8.281544,5.171447,5.261929,14.232322
300000,-2.547431,-1.783680,8.145074,4.759233,4.345898,14.995680
304000,-2.595315,-1.762132,8.090008,4.392821,3.674142,16.094917
308000,-2.750938,-1.778892,8.066066,4.041677,3.200860,17.224689
312000,-2.762909,-1.836353,8.109161,3.919539,2.483302,18.049116
316000,-2.808398,-1.845930,8.159439,3.659997,2.513837,19.285757
320000,-2.908955,-1.766921,8.142680,3.476791,3.216127,20.384995
324000,-2.966416,-1.817199,8.092402,3.308852,2.910783,21.438429
328000,-3.011906,-1.742979,7.958326,2.927173,3.597806,22.736139
332000,-3.076549,-1.757344,8.063671,2.301218,3.536737,23.514765
336000,-3.210624,-1.764527,8.015787,1.858470,3.078722,24.797209
340000,-3.236961,-1.807622,8.118738,1.385188,2.727577,26.171253
344000,-3.282450,-1.774103,8.111555,1.217249,2.452768,27.453697
348000,-3.330335,-1.723825,8.195353,0.866104,2.330631,28.812475
352000,-3.373430,-1.786075,8.094796,0.972974,1.994753,29.667437
356000,-3.476381,-1.764527,8.080431,1.003508,0.758111,30.751406
360000,-3.548207,-1.814805,8.101978,1.415722,-0.936545,32.125454
364000,-3.670311,-1.802834,8.276755,0.835569,-2.631201,33.438431
368000,-3.677494,-1.810017,8.499416,0.759233,-3.669369,34.949879
372000,-3.588908,-1.860295,8.535329,0.972974,-3.837308,36.507130
376000,-3.512294,-1.841141,8.576031,1.461524,-4.493797,37.621635
380000,-3.473987,-1.853112,8.659827,1.659997,-5.241889,38.644535
384000,-3.471592,-1.872266,8.702923,1.934806,-4.921278,39.697971
388000,-3.512294,-1.934515,8.846576,1.782134,-4.249522,40.659801
392000,-3.529053,-1.951274,8.923190,2.255417,-3.944179,41.697971
396000,-3.157952,-2.099715,9.011775,2.743967,-0.325858,43.438431
400000,-3.739743,-2.018312,8.911219,2.576027,-1.989980,44.552933
404000,-3.569755,-1.982399,9.006987,3.614195,-2.967079,45.362095
408000,-3.483563,-2.044648,9.172187,2.789768,-1.150285,46.904079
412000,-3.507505,-2.059013,9.179369,2.957707,-0.646469,47.743774
416000,-3.464410,-2.109292,9.059659,3.263050,0.284829,48.232323
420000,-3.512294,-2.082955,9.196129,3.721066,1.735211,49.194153
424000,-3.713407,-2.159570,9.102755,4.179081,2.040554,50.262856
428000,-3.842694,-2.255338,9.107543,4.423356,2.529104,51.728504
432000,-3.861847,-2.250550,8.923190,4.789768,1.933684,52.812473
436000,-3.964798,-2.279280,8.784326,4.835569,1.796279,54.308659
440000,-4.089296,-2.334347,8.652645,4.698165,0.391699,55.636902
444000,-4.144363,-2.379837,8.738836,4.988241,-0.249522,57.148354
448000,-4.216189,-2.398990,8.628703,4.988241,-0.692270,58.873543
452000,-4.235343,-2.276886,8.542512,4.850837,-1.104484,60.904079
456000,-4.149151,-2.315193,8.485051,5.156180,-0.997614,62.736137
460000,-4.244920,-2.317587,8.391677,5.308852,-0.921278,64.613998
464000,-4.230555,-2.339135,8.358158,5.385188,-0.860209,66.430794
468000,-4.187459,-2.331953,8.140285,5.018775,-0.142652,68.476601
472000,-4.197036,-2.257732,8.113950,4.469157,0.513837,70.384995
476000,-4.321534,-2.176329,7.960721,3.598928,0.269562,72.323929
480000,-4.302381,-2.135628,7.984663,2.484425,-0.325858,74.598732
484000,-4.230555,-2.133234,8.226477,1.598928,-1.012881,77.041481
488000,-4.185065,-2.229002,8.389283,1.492058,-0.677003,78.888809
492000,-4.050989,-2.085350,8.386889,1.354653,0.880249,81.438431
496000,-3.916914,-2.123657,8.233660,0.988241,2.010020,83.209419
500000,-3.806781,-2.082955,8.171411,0.621829,3.124524,84.720871
504000,-3.708618,-2.051831,8.212111,0.255417,3.185592,86.125450
508000,-3.773262,-2.104503,8.125920,-0.217866,2.345898,86.476601
512000,-3.732560,-2.157176,8.068460,-0.523209,0.987119,87.530029
516000,-3.711013,-2.157176,8.049306,-1.072828,-0.066316,88.293388
520000,-3.818752,-2.181118,8.022970,-1.408705,-1.715171,88.919342
524000,-3.792415,-2.279280,7.996634,-1.607178,-4.539598,89.530029
528000,-3.960010,-2.317587,7.948750,-1.576644,-8.707538,89.881180
532000,-3.998317,-2.324770,8.090008,-1.347636,-12.310591,90.430794
536000,-3.998317,-2.334347,8.214506,-1.240766,-15.409828,91.621635
540000,-4.070143,-2.475605,8.200141,-0.981224,-18.218988,92.797211
544000,-4.079720,-2.463634,8.257602,-0.401072,-20.554867,94.262856
548000,-3.806781,-2.410961,8.353370,0.056943,-21.394560,95.453697
552000,-3.648763,-2.470816,8.300697,1.079844,-22.173187,96.446060
556000,-3.576937,-2.506729,8.353370,1.965340,-21.638836,97.102554
560000,-3.591303,-2.406173,8.293514,1.889004,-21.638836,98.201790
564000,-3.548207,-2.485181,8.236053,1.873737,-20.509064,99.453697
568000,-3.526659,-2.377442,8.226477,1.873737,-19.257156,100.736137
572000,-3.569755,-2.387019,8.190564,1.659997,-18.386927,102.018585
576000,-3.538630,-2.494758,8.006210,1.079844,-17.837309,103.682701
580000,-3.567361,-2.480393,7.960721,0.698165,-17.669371,105.606369
584000,-3.495534,-2.506729,7.857770,0.163814,-17.730438,107.423164
588000,-3.459621,-2.511518,7.917625,-0.752217,-18.005247,109.270493
592000,-3.284845,-2.456451,7.848193,-1.530843,-17.669371,111.224686
596000,-3.174711,-2.375048,7.860164,-2.599545,-16.051048,113.545296
600000,-2.956839,-2.398990,8.078036,-3.881988,-14.997614,114.980415
604000,-2.715025,-2.370260,8.087613,-4.477407,-13.455629,116.507133
608000,-2.511518,-2.391808,8.259995,-4.981225,-11.974713,117.774307
612000,-2.293645,-2.353500,8.408437,-4.904889,-10.356393,118.430794
616000,-2.106898,-2.339135,8.635885,-4.996491,-7.379293,119.010948
620000,-1.853112,-2.281674,8.662222,-4.981225,-4.936545,119.148354
624000,-1.702277,-2.231396,8.556877,-4.874354,-3.669369,119.148354
628000,-1.659182,-2.147599,8.609550,-4.538477,-3.058682,118.491867
632000,-1.623269,-2.133234,8.508993,-4.049927,-3.730438,117.759041
636000,-1.431733,-2.075773,8.408437,-3.576644,-4.035782,117.072014
640000,-1.381454,-2.049437,8.513782,-2.904888,-5.501431,115.682701
644000,-1.407791,-2.037466,8.456321,-2.233133,-7.898377,114.369728
648000,-1.398214,-1.984793,8.374918,-1.714049,-10.906011,113.377357
652000,-1.441309,-1.972822,8.319851,-1.286568,-13.928912,112.354462
656000,-1.549049,-2.068590,8.171411,-0.645346,-16.447996,111.942245
660000,-1.604115,-2.054225,8.001422,-0.324736,-18.936544,111.957512
664000,-1.687912,-2.061408,7.836222,-0.019392,-21.699903,111.911713
668000,-1.707066,-2.114080,7.721301,-0.645346,-24.081583,112.247589
672000,-1.553837,-2.123657,7.778761,-0.859087,-25.470896,112.843010
676000,-1.450886,-2.133234,7.936779,-1.668247,-25.989981,113.499496
680000,-1.268927,-2.128445,8.015787,-2.248400,-25.287691,114.171257
684000,-1.084573,-2.121263,8.133103,-2.523209,-24.570133,114.384995
688000,-0.883460,-2.142811,8.271967,-2.599545,-23.073950,114.461327
692000,-0.921768,-2.116474,8.516175,-2.462140,-20.799141,114.629272
696000,-0.835576,-2.130840,8.439561,-2.782751,-19.440363,114.705605
700000,-0.897826,-2.152387,8.418014,-3.408705,-18.341125,114.552933
704000,-0.835576,-2.130840,8.418014,-3.988858,-17.989981,114.201790
708000,-0.794875,-2.185906,8.506598,-4.294202,-17.287691,114.171257
712000,-0.869095,-2.154782,8.602366,-4.233133,-15.837309,114.064384
716000,-0.799663,-2.104503,8.590396,-4.126263,-15.043416,113.988045
720000,-0.792481,-2.082955,8.511387,-4.141530,-14.600668,113.835373
724000,-0.670376,-2.070984,8.585608,-3.836186,-13.776240,113.606369
728000,-0.550666,-1.965640,8.614338,-3.194965,-13.455629,112.858276
732000,-0.344765,-1.898602,8.580819,-2.523209,-12.341125,112.094917
736000,-0.260968,-1.821988,8.602366,-2.034660,-10.478530,111.056747
740000,-0.270545,-1.709460,8.494628,-1.500308,-9.440362,109.820107
744000,-0.265756,-1.769315,8.276755,-0.752217,-8.722805,108.629272
748000,-0.363919,-1.776498,8.231265,-0.019392,-7.913644,108.110184
752000,-0.653617,-1.783680,7.912837,0.408088,-8.096850,107.545296
756000,-0.835576,-1.853112,7.702147,0.331753,-9.852576,107.484230
760000,-0.979228,-1.924938,7.558495,-0.385804,-11.593034,107.484230
764000,-1.012747,-1.977611,7.395689,-0.813286,-14.203721,108.003311
768000,-1.084573,-2.080561,7.568071,-1.973591,-17.699903,108.552933
772000,-1.058237,-2.128445,7.580042,-2.263667,-20.417461,109.148354
776000,-0.928950,-2.097321,7.809886,-2.614812,-22.493797,109.377357
780000,-0.739808,-2.078167,7.831434,-2.904888,-24.356392,109.621635
784000,-0.624887,-1.908179,7.757214,-3.439240,-26.081583,109.514763
788000,-0.562637,-1.939303,7.917625,-4.752217,-27.593035,109.560570
792000,-0.454898,-1.922544,8.130709,-5.591911,-27.776239,109.148354
796000,-0.306458,-1.862689,8.339005,-5.988858,-26.844942,108.965149
800000,-0.378284,-1.778892,8.204929,-6.828553,-26.066317,108.644539
804000,-0.225055,-1.802834,8.219295,-7.088095,-24.600668,108.400261
808000,-0.263362,-1.719037,8.243237,-7.469774,-22.417461,108.217056
812000,-0.275333,-1.733402,8.149862,-7.698782,-19.974712,108.003311
816000,-0.263362,-1.793257,8.398860,-7.973591,-17.745707,108.201790
820000,-0.275333,-1.812411,8.267179,-8.401072,-15.516698,107.896446
824000,-0.265756,-1.819593,8.276755,-8.294202,-13.440362,107.713242
828000,-0.332794,-1.843535,8.135497,-8.752217,-11.715171,107.575836
832000,-0.550666,-1.798046,8.154651,-8.981225,-10.051049,107.438431
836000,-0.581791,-1.855506,8.087613,-9.668247,-8.615934,108.186523
840000,-0.541090,-1.762132,8.001422,-10.370538,-7.516697,108.171257
844000,-0.644040,-1.843535,7.819463,-10.874354,-7.257155,108.552933
848000,-0.746991,-1.853112,7.850587,-11.530843,-7.776239,108.720871
852000,-0.816423,-1.843535,7.876924,-12.217866,-8.142652,109.194153
856000,-0.656011,-1.884237,8.025364,-13.011760,-7.150285,109.881180
860000,-0.624887,-1.848324,8.085219,-12.859088,-6.768606,110.217056
864000,-0.627281,-1.838747,8.137892,-12.324737,-6.967079,110.522400
868000,-0.608127,-1.836353,8.185776,-11.561378,-7.104484,111.438431
872000,-0.509965,-1.833959,8.130709,-11.225499,-6.188453,111.988045
876000,-0.349553,-1.735796,7.905654,-11.103362,-6.005247,112.629272
880000,-0.210690,-1.798046,7.778761,-11.256034,-7.058682,112.003311
884000,-0.126893,-1.651999,7.651869,-12.080461,-9.333492,111.911713
888000,0.112527,-1.637634,7.790732,-12.904889,-11.348759,111.484230
892000,0.478840,-1.589750,8.015787,-13.423972,-13.012881,111.056747
896000,0.756568,-1.493982,8.039729,-13.790385,-13.638836,109.942245
900000,0.955287,-1.364695,8.099585,-14.217866,-14.539598,108.522400
904000,1.082179,-1.242591,8.140285,-14.935424,-15.852576,106.949883
908000,1.156399,-1.280898,8.456321,-15.607179,-17.058683,105.774307
912000,1.192312,-1.165976,8.717288,-15.836186,-17.364027,104.919342
916000,1.288081,-1.113304,8.901642,-15.714049,-17.272423,104.155983
920000,1.625663,-0.995988,9.069236,-15.240767,-15.516698,102.934616
924000,1.824382,-0.962469,9.033323,-14.950690,-11.944179,101.056747
928000,1.766921,-0.945710,9.066842,-14.767484,-8.417461,99.224686
932000,1.458069,-0.775721,8.932767,-15.149163,-5.470896,98.110184
936000,1.414973,-0.746991,8.944737,-15.546111,-4.524331,97.346825
940000,1.570596,-0.624887,8.791509,-16.019392,-3.959446,95.881180
944000,1.561020,-0.536301,8.678981,-16.370537,-2.677003,94.339195
948000,1.417367,-0.536301,8.872911,-16.630079,-1.470896,92.919342
952000,1.237802,-0.577003,8.829816,-16.584276,-0.493797,92.155983
956000,1.048660,-0.639252,8.652645,-16.721682,-1.089217,90.919342
960000,1.022324,-0.660800,8.623915,-16.859087,-3.959446,89.636902
964000,1.000776,-0.773327,8.860941,-16.721682,-7.654102,87.988045
968000,0.897826,-0.847547,9.176975,-16.172064,-9.699904,87.239960
972000,0.785298,-0.972046,9.334992,-14.477408,-11.577766,86.491867
976000,0.679953,-1.070208,9.562442,-13.057561,-12.234255,86.369728
980000,0.816423,-1.115698,9.610326,-11.500309,-10.081584,86.934616
984000,0.888249,-1.053449,9.713276,-9.943057,-8.157919,87.102554
988000,0.878672,-0.984017,9.655815,-9.225499,-5.806774,87.636902
992000,1.086968,-0.840365,9.610326,-8.385805,-2.661736,88.140717
996000,1.314417,-0.720655,9.507375,-7.805653,0.788646,87.988045
1000000,1.462857,-0.711078,9.160215,-7.500309,4.513837,87.743774
1004000,1.489193,-0.603339,8.839393,-7.652981,8.086355,87.438431
1008000,1.613692,-0.502782,8.619126,-8.416339,10.468035,87.224686
1012000,1.766921,-0.471658,8.389283,-9.576645,12.895515,86.430794
1016000,1.821988,-0.402226,8.154651,-11.179698,13.002386,85.102554
1020000,1.819593,-0.459687,7.955932,-12.706416,11.567271,83.575836
1024000,1.771709,-0.430956,8.073248,-14.248401,7.307730,81.926979
1028000,1.690306,-0.421380,8.259995,-14.691148,4.254295,80.949883
1032000,1.891419,-0.414197,8.473080,-15.622445,2.437501,80.018585
1036000,2.047042,-0.373495,8.456321,-16.416338,1.750478,79.239960
1040000,2.336741,-0.354342,8.561666,-16.691147,2.162692,77.835373
1044000,2.621651,-0.179565,8.487445,-16.721682,3.216127,76.049118
1048000,2.633622,0.007183,8.492233,-17.011759,3.368799,73.499496
1052000,2.858677,0.067038,8.501810,-17.027025,3.536737,71.362091
1056000,2.913743,0.179565,8.482656,-16.538475,5.307730,68.904076
1060000,2.894590,0.296881,8.310274,-15.927789,6.406967,66.232323
1064000,2.813187,0.282516,8.094796,-14.798018,6.544371,63.621635
1068000,2.571373,0.287304,8.018182,-14.233132,5.048188,61.377361
1072000,2.353500,0.205901,8.262390,-13.317103,2.559638,59.743774
1076000,2.262521,0.239420,8.238448,-12.920156,-0.783873,58.629269
1080000,2.269703,0.256180,8.228871,-12.507943,-3.073950,56.995682
1084000,2.221819,0.169988,8.231265,-11.744583,-5.989980,55.514767
1088000,2.300828,0.105345,8.315063,-11.042294,-9.302958,54.003315
1092000,2.351106,0.107739,8.511387,-11.256034,-10.661736,52.262856
1096000,2.379837,0.155623,8.516175,-11.194965,-11.577766,50.858276
1100000,2.372654,0.153229,8.530540,-11.408706,-12.814408,49.652168
1104000,2.437297,0.184354,8.585608,-11.271301,-12.799141,48.064384
1108000,2.475605,0.246603,8.568848,-11.210233,-12.066317,46.583466
1112000,2.564190,0.172383,8.801085,-9.805653,-0.844942,46.171253
1116000,1.795651,0.304064,8.583213,-11.164431,-19.043415,43.239956
1120000,2.425326,0.280122,8.518570,-9.881988,-23.883110,40.812473
1124000,2.477999,0.366313,8.571242,-11.332370,-26.478531,38.934612
1128000,2.425326,0.442927,8.552089,-13.072827,-30.432728,36.949879
1132000,2.719813,0.371101,8.657434,-13.485042,-25.913645,35.591103
1136000,2.638410,0.311246,8.683769,-13.515576,-20.860210,34.522400
1140000,2.518700,0.313640,8.817844,-12.843820,-17.425095,33.224689
1144000,2.432509,0.349553,8.628703,-13.485042,-17.760973,32.049118
1148000,2.518700,0.387861,8.736442,-14.049928,-15.593034,30.965147
1152000,2.542642,0.351948,8.863335,-15.011760,-12.600668,29.926979
1156000,2.533065,0.299275,8.911219,-15.607179,-10.310591,28.873545
1160000,2.748544,0.380678,9.186552,-15.591912,-7.272423,28.110186
1164000,2.638410,0.493206,9.246407,-14.950690,-5.165553,26.323925
1168000,2.760514,0.507571,8.959103,-14.935424,-7.028148,24.171253
1172000,2.779668,0.462081,8.870518,-14.233132,-7.409827,21.163620
1176000,2.545036,0.509965,8.681376,-14.385804,-6.371659,18.644537
1180000,2.252944,0.512359,8.657434,-14.614812,-7.165553,16.736139
1184000,1.910573,0.423774,8.729259,-14.233132,-7.974713,14.705604
1188000,1.623269,0.265756,8.777143,-13.576644,-8.967080,12.995680
1192000,1.290475,0.208296,8.619126,-14.095729,-10.906011,11.652169
1196000,1.003170,0.150835,8.667010,-14.965957,-12.890744,10.614001
1200000,0.706290,0.002394,8.834604,-15.500308,-14.799141,10.033848
1204000,0.555455,-0.146046,9.145850,-15.897256,-17.638836,9.881176
1208000,0.462081,-0.239420,9.459491,-15.317103,-18.478531,9.896443
1212000,0.526724,-0.248997,9.880871,-15.362905,-17.318224,10.507131
1216000,0.418985,-0.337582,9.909601,-14.385804,-13.791507,10.919344
1220000,0.414197,-0.268151,9.933543,-14.736949,-12.722805,11.209421
1224000,0.469264,-0.337582,10.029311,-14.034659,-11.654102,11.087283
1228000,0.507571,-0.335188,10.007763,-13.515576,-9.913645,10.995680
1232000,0.459687,-0.239420,9.713276,-12.828553,-7.257155,11.133085
1236000,0.502782,-0.186748,9.648633,-12.141530,-5.822041,10.980413
1240000,0.438139,-0.201113,9.437943,-11.561378,-3.699904,10.965146
1244000,0.433351,-0.138864,9.260772,-11.179698,-2.112118,10.659802
1248000,0.368707,-0.122104,9.162610,-10.462141,-1.486163,10.171253
1252000,0.335188,-0.038307,9.014170,-9.775118,-1.852576,10.140718
1256000,0.351948,0.057461,9.062054,-8.660614,-1.837308,9.255222
1260000,0.517148,0.035913,9.263166,-7.347637,-1.348759,8.598734
1264000,0.833182,0.071826,9.569624,-5.744583,0.803913,7.285757
1268000,1.134852,0.052672,9.660604,-3.546110,3.277195,5.407895
1272000,1.072602,0.064643,9.485827,-0.813286,4.162692,3.010948
1276000,0.885855,-0.019154,9.346964,1.217249,3.704677,0.949879
1280000,0.651223,-0.045490,9.172187,2.484425,3.093989,-0.775312
1284000,0.356736,-0.107739,9.085996,3.430989,2.819180,-1.416533
1288000,0.057461,-0.203507,8.678981,3.889004,3.124524,-1.599739
1292000,-0.059855,-0.153229,8.525752,3.950073,3.246661,-1.340197
1296000,-0.090980,-0.201113,8.382100,3.232516,2.055821,-1.218060
1300000,-0.057461,-0.244209,8.279149,2.591295,1.658875,-1.294396
1304000,0.000000,-0.232238,8.257602,1.568394,1.216127,-1.416533
1308000,-0.023942,-0.299275,8.248025,0.408088,0.834447,-1.798213
1312000,-0.028730,-0.375890,8.497022,-0.385804,0.452768,-2.500503
1316000,-0.136469,-0.385466,8.513782,-0.691148,0.406966,-2.744777
1320000,-0.215478,-0.397437,8.508993,-1.546110,1.032921,-3.050121
1324000,-0.428562,-0.414197,8.556877,-1.729316,0.773379,-2.805846
1328000,-0.524330,-0.517148,8.717288,-1.546110,-0.615934,-2.958518
1332000,-0.574608,-0.471658,8.889671,-1.088094,-0.951812,-2.683709
1336000,-0.679953,-0.500388,8.870518,-0.935423,-0.768606,-2.363098
1340000,-0.682347,-0.502782,8.717288,-1.408705,-0.646469,-1.981419
1344000,-0.754174,-0.545878,8.765172,-1.256034,-1.531965,-1.813480
1348000,-0.658405,-0.565032,8.956709,-0.538476,-1.669369,-1.844014
1352000,-0.744597,-0.536301,9.131485,-0.920156,-0.463263,-1.034854
1356000,-0.794875,-0.598550,9.078813,-0.462140,0.269562,-0.607373
1360000,-0.689530,-0.584185,8.920795,-0.278934,1.231394,0.033849
1364000,-0.641646,-0.565032,8.851364,0.285951,0.712310,0.415528
1368000,-0.543484,-0.560243,8.815451,0.453890,0.559638,0.384994
1372000,-0.514753,-0.555455,8.918402,0.759233,0.788646,0.797207
1376000,-0.430956,-0.538695,9.102755,1.797401,2.483302,0.995681
1380000,-0.409408,-0.514753,9.035717,2.469157,3.093989,0.720871
1384000,-0.318429,-0.481235,8.817844,3.064577,3.796279,0.675070
1388000,-0.399832,-0.438139,8.578424,2.743967,4.040555,0.384994
1392000,-0.428562,-0.375890,8.549694,2.270684,2.880249,0.247589
1396000,-0.404620,-0.268151,8.635885,2.270684,1.292463,0.293391
1400000,-0.308852,-0.339977,8.779537,2.194348,0.971852,0.064383
1404000,-0.213084,-0.332794,8.889671,2.637096,1.628341,-0.195159
1408000,-0.213084,-0.277727,8.815451,2.881371,2.315363,-0.134090
1412000,-0.162806,-0.208296,8.525752,2.805035,2.468035,-0.378365
1416000,-0.256180,-0.100556,8.475474,2.316485,1.170325,-0.439434
1420000,-0.162806,-0.126893,8.346188,1.446256,0.437501,-0.698976
1424000,0.011971,-0.047884,8.401254,0.866104,1.552005,-0.912716
1428000,0.011971,-0.026336,8.370130,-0.569010,2.803913,-0.729510
1432000,0.033519,-0.076614,8.315063,-1.347636,2.910783,-1.523403
1436000,-0.016759,-0.083797,8.532935,-2.095728,2.697043,-2.042487
1440000,-0.122104,-0.112527,8.511387,-2.996492,0.437501,-2.439434
1444000,-0.023942,-0.220267,8.860941,-3.347636,-1.531965,-2.851648
1448000,-0.069432,-0.227449,9.011775,-3.256034,-1.104484,-2.912716
1452000,-0.055067,-0.347159,9.052477,-3.103362,-0.310591,-3.156991
1456000,-0.088585,-0.375890,9.176975,-2.614812,-0.051049,-3.309663
1460000,-0.141258,-0.373495,9.215282,-1.790385,-1.089217,-3.340197
1464000,-0.141258,-0.430956,9.260772,-1.301835,-1.364026,-3.309663
1468000,-0.301669,-0.452504,9.282320,-0.874354,-1.898377,-3.218060
1472000,-0.184354,-0.402226,9.308656,-0.614812,-1.684637,-3.080655
1476000,-0.131681,-0.462081,9.224859,-0.065194,-0.356392,-2.729510
1480000,-0.148441,-0.438139,9.251195,0.942440,0.941318,-2.454701
1484000,-0.028730,-0.301669,9.090784,1.293585,1.368798,-2.561571
1488000,-0.016759,-0.323217,8.935161,1.629462,1.322997,-3.065388
1492000,-0.045490,-0.344765,8.815451,1.934806,0.697043,-3.569205
1496000,-0.052672,-0.332794,8.769960,1.934806,0.330631,-4.011953
1500000,-0.107739,-0.251391,8.698134,2.194348,-0.280056,-4.286762
1504000,-0.177171,-0.296881,8.631097,2.133279,-0.829675,-4.561571
1508000,-0.112527,-0.339977,8.729259,2.011142,-0.936545,-4.805846
1512000,-0.186748,-0.237026,8.616732,1.827936,-0.936545,-4.882182
1516000,-0.277727,-0.186748,8.592790,1.492058,-1.150285,-5.126457
1520000,-0.172383,-0.239420,8.561666,1.522592,-0.799140,-5.065388
1524000,-0.217872,-0.213084,8.690952,1.446256,-0.646469,-4.973785
1528000,-0.201113,-0.155623,8.748413,1.995875,-0.234255,-5.065388
1532000,-0.162806,-0.124498,8.683769,2.484425,0.223760,-5.340197
1536000,-0.110133,-0.100556,8.504205,2.560760,1.093989,-5.615006
1540000,-0.198719,-0.141258,8.422802,2.484425,1.368798,-5.874548
1544000,-0.325611,-0.110133,8.396465,2.270684,1.155058,-6.240961
1548000,-0.330400,-0.076614,8.406042,2.209615,-0.142652,-6.454701
1552000,-0.342371,-0.165200,8.384495,2.377554,-0.768606,-6.408899
1556000,-0.292093,-0.165200,8.362947,1.827936,-1.028148,-6.851647
1560000,-0.337582,-0.210690,8.422802,1.507325,-0.768606,-7.095922
1564000,-0.450110,-0.275333,8.463503,0.927172,-0.997614,-6.927983
1568000,-0.483629,-0.335188,8.477868,0.682898,-0.417461,-6.851647
1572000,-0.600945,-0.474052,8.556877,0.347020,-0.341125,-6.592105
1576000,-0.694318,-0.529119,8.597578,-0.141530,-0.325858,-6.347831
1580000,-0.677559,-0.598550,8.690952,-0.416339,-1.348759,-6.103556
1584000,-0.754174,-0.644040,8.738836,-0.278934,-1.974713,-6.073021
1588000,-0.804452,-0.691924,8.923190,-0.049927,-2.402194,-5.706609
1592000,-0.794875,-0.696713,8.980651,0.255417,-2.402194,-5.202793
1596000,-0.828394,-0.672771,9.069236,0.484424,-1.180820,-4.760045
1600000,-0.866701,-0.644040,9.054871,0.682898,-0.051049,-4.118823
1604000,-0.826000,-0.629675,9.076419,1.278317,0.834447,-3.538671
1608000,-0.718261,-0.588974,9.002198,1.430989,1.628341,-2.546304
1612000,-0.732626,-0.517148,8.966286,1.522592,2.849715,-2.103556
1616000,-0.639252,-0.430956,8.995016,1.690531,3.277195,-1.737144
1620000,-0.579397,-0.349553,8.906430,1.858470,3.994753,-1.508136
1624000,-0.454898,-0.316035,8.755595,1.919539,4.529104,-1.523403
1628000,-0.387861,-0.239420,8.757990,1.690531,4.956585,-1.477602
1632000,-0.397437,-0.172383,8.628703,1.201982,4.300097,-1.523403
1636000,-0.354342,-0.193930,8.427590,1.614195,4.834447,-1.294396
1640000,-0.325611,-0.050278,8.331821,1.553127,4.498569,-1.569205
1644000,-0.256180,0.043096,8.360553,1.308852,4.132157,-2.088289
1648000,-0.275333,0.004788,8.427590,1.507325,2.956585,-2.714243
1652000,-0.282516,0.009577,8.444349,1.889004,1.384066,-3.172258
1656000,-0.366313,-0.021548,8.439561,1.797401,0.345898,-3.355464
1660000,-0.368707,-0.011971,8.475474,1.629462,-0.463263,-3.645541
1664000,-0.414197,-0.110133,8.501810,1.430989,-0.493797,-3.492869
1668000,-0.569820,-0.102951,8.463503,1.034043,-0.768606,-3.477602
1672000,-0.488417,-0.158017,8.568848,0.514959,-0.814408,-3.279129
1676000,-0.505177,-0.241814,8.554482,0.148546,-0.585400,-3.050121
1680000,-0.471658,-0.227449,8.583213,0.056943,-0.203721,-3.034854
1684000,-0.407014,-0.227449,8.655039,-0.004125,0.422234,-2.836380
1688000,-0.445322,-0.270545,8.710106,-0.233133,1.460402,-2.775312
1692000,-0.435745,-0.201113,8.667010,-0.599545,1.704676,-2.668442
1696000,-0.409408,-0.248997,8.607155,-1.118629,1.460402,-2.515770
1700000,-0.430956,-0.146046,8.573636,-1.485041,1.826814,-2.637907
1704000,-0.440533,-0.179565,8.592790,-1.591912,2.116890,-2.790579
1708000,-0.435745,-0.169988,8.669404,-1.408705,2.330631,-2.653174
1712000,-0.543484,-0.198719,8.722076,-0.950690,1.964218,-2.439434
1716000,-0.483629,-0.263362,8.746018,-0.446873,1.796279,-2.592106
1720000,-0.543484,-0.220267,8.753201,-0.049927,1.628341,-2.485235
1724000,-0.636858,-0.265756,8.631097,-0.355270,1.384066,-2.424167
1728000,-0.617704,-0.270545,8.640674,-0.507942,1.292463,-2.134090
1732000,-0.505177,-0.258574,8.647857,-0.355270,1.399333,-1.920350
1736000,-0.447716,-0.304064,8.638280,-0.569010,1.643608,-1.660808
1740000,-0.366313,-0.296881,8.614338,-0.370538,1.735211,-1.569205
1744000,-0.277727,-0.265756,8.597578,-0.492675,3.521470,-1.553938
1748000,-0.397437,-0.337582,8.465898,-0.859087,2.574905,-1.782945
1752000,-0.414197,-0.292093,8.422802,-1.668247,2.223760,-1.752411
1756000,-0.466869,-0.318429,8.492233,-1.912522,0.559638,-2.363098
1760000,-0.347159,-0.313640,8.607155,-2.065194,0.483302,-2.408900
1764000,-0.428562,-0.275333,8.595184,-2.172064,-0.218988,-2.729510
1768000,-0.486023,-0.316035,8.621520,-2.431606,0.269562,-2.637907
1772000,-0.627281,-0.371101,8.650250,-3.103362,-0.264789,-2.851648
1776000,-0.799663,-0.375890,8.707711,-3.362904,-2.524331,-2.805846
1780000,-0.837971,-0.481235,8.784326,-3.317102,-4.921278,-2.164625
1784000,-0.809240,-0.335188,8.844181,-3.943056,-6.615934,-2.042487
1788000,-0.782904,-0.423774,8.990228,-3.652980,-7.180820,-1.981419
1792000,-0.782904,-0.399832,9.090784,-3.164430,-5.852575,-1.615006
1796000,-0.672771,-0.385466,9.021352,-3.088094,-4.844942,-0.958518
1800000,-0.624887,-0.402226,8.911219,-2.736950,-3.272423,-0.286762
1804000,-0.672771,-0.404620,9.028535,-2.523209,-2.631201,0.308658
1808000,-0.579397,-0.457293,8.911219,-2.538476,-2.677003,0.400261
1812000,-0.452504,-0.325611,8.836999,-2.767484,-2.280056,0.568200
1816000,-0.332794,-0.222661,8.884883,-2.828552,-0.768606,0.476597
1820000,-0.277727,-0.208296,8.779537,-2.553744,0.330631,-0.011953
1824000,-0.366313,-0.136469,8.786720,-2.156797,0.055821,0.110184
1828000,-0.414197,-0.167594,8.817844,-1.530843,-1.119751,-0.546304
1832000,-0.442927,-0.258574,8.858546,-1.439240,-2.218988,-0.698976
1836000,-0.478840,-0.241814,8.839393,-1.790385,-4.295324,-0.989052
1840000,-0.605733,-0.332794,8.877700,-1.194965,-5.455629,-0.912716
1844000,-0.471658,-0.344765,8.990228,-1.011759,-4.799140,-0.653174
1848000,-0.486023,-0.395043,8.992621,-0.614812,-3.913644,-0.454701
1852000,-0.433351,-0.366313,8.872911,-0.538476,-3.409827,-0.179892
1856000,-0.304064,-0.373495,8.983045,-0.278934,-2.783873,-0.057755
1860000,-0.299275,-0.395043,8.884883,-0.370538,-1.867843,0.140719
1864000,-0.203507,-0.423774,8.774749,-0.187331,-2.005247,-0.088289
1868000,-0.169988,-0.445322,8.829816,-0.080461,-0.585400,-0.164625
1872000,-0.268151,-0.519542,8.789114,0.041676,-0.005247,0.201787
1876000,-0.177171,-0.438139,8.793902,-0.004125,0.819180,0.247589
1880000,-0.067038,-0.411803,8.698134,-0.080461,2.315363,0.552933
1884000,-0.064643,-0.356736,8.588001,-0.553744,2.590173,0.369726
1888000,-0.004788,-0.222661,8.573636,-0.721682,3.078722,0.125452
1892000,0.110133,-0.114922,8.489840,-0.920156,3.078722,-0.363098
1896000,0.047884,-0.095768,8.394072,-1.042293,3.506203,-1.004319
1900000,0.088585,-0.095768,8.267179,-1.103362,4.010020,-1.416533
1904000,-0.038307,-0.047884,8.238448,-1.301835,4.452768,-1.523403
1908000,-0.102951,-0.117316,8.130709,-1.836186,5.506203,-1.721877
1912000,-0.143652,-0.059855,8.135497,-2.401072,3.719944,-2.118823
1916000,-0.124498,-0.083797,8.142680,-1.240766,2.330631,-3.156991
1920000,-0.308852,-0.119710,8.324639,-1.714049,0.391699,-3.874548
1924000,-0.550666,-0.160412,8.226477,-1.912522,-4.783873,-4.805846
1928000,-0.711078,-0.244209,8.353370,-2.981224,-6.005247,-4.302029
1932000,-0.883460,-0.349553,8.614338,-3.088094,-9.409828,-4.302029
1936000,-0.859518,-0.457293,8.774749,-2.874354,-10.860209,-3.981419
1940000,-0.984017,-0.418985,8.872911,-2.278934,-11.501431,-3.492869
1944000,-0.936133,-0.557849,8.889671,-2.202598,-13.104485,-3.324930
1948000,-0.847547,-0.617704,9.074024,-1.927789,-12.447996,-2.943251
1952000,-0.687136,-0.660800,9.050082,-2.675881,-9.608301,-1.813480
1956000,-0.627281,-0.739808,9.136273,-1.836186,-9.135018,-1.767678
1960000,-0.517148,-0.751779,9.107543,-1.927789,-6.951812,-1.324930
1964000,-0.507571,-0.782904,9.062054,-2.095728,-4.768606,-0.836380
1968000,-0.555455,-0.854730,9.057265,-2.080461,-3.287690,-0.561571
1972000,-0.538695,-0.802058,8.925584,-2.156797,-0.051049,0.262856
1976000,-0.416591,-0.802058,8.997410,-2.355270,0.819180,0.278123
1980000,-0.596156,-0.780510,9.090784,-1.805652,1.735211,0.323925
1984000,-0.706290,-0.773327,9.196129,-1.286568,1.628341,0.537665
1988000,-0.694318,-0.787692,9.150639,-0.599545,1.246661,0.705604
1992000,-0.804452,-0.751779,9.318233,-0.065194,0.330631,0.980413
1996000,-0.775721,-0.612916,9.244013,0.591295,-0.356392,1.652169
