time_us,ax,ay,az,gx,gy,gz
0,-0.574608,-1.125275,8.556877,-0.538476,2.834447,1.468963
4000,-0.612916,-1.065420,8.559271,-0.843820,3.246661,1.530032
8000,-0.620098,-1.051055,8.791509,-0.889621,3.368799,1.621635
12000,-0.500388,-1.043872,8.552089,-0.813286,4.788646,1.530032
16000,-0.754174,-1.046266,8.652645,-1.194965,3.903150,1.759039
20000,-0.677559,-0.998382,8.592790,-1.286568,0.529104,1.438429
24000,-0.620098,-0.981623,8.674192,-0.981224,1.063455,1.728505
28000,-0.675165,-1.012747,8.844181,-1.072828,0.773379,1.636902
32000,-0.550666,-1.074997,8.923190,-0.431606,0.727577,1.575833
36000,-0.536301,-1.015141,8.860941,0.102745,1.277195,1.682703
40000,-0.577003,-1.015141,8.892065,0.469157,1.674142,1.438429
44000,-0.605733,-1.046266,8.793902,0.972974,2.025287,1.301024
48000,-0.543484,-1.029507,8.592790,1.232516,2.391699,1.163620
52000,-0.648829,-1.039083,8.508993,0.927172,2.254295,1.255223
56000,-0.579397,-1.012747,8.516175,0.789768,2.437501,1.148352
60000,-0.543484,-1.003170,8.523358,0.576027,2.605440,1.133085
64000,-0.505177,-0.948104,8.374918,0.163814,2.391699,0.690337
68000,-0.507571,-0.847547,8.305486,-0.446873,2.193226,0.217055
72000,-0.553061,-0.847547,8.307879,-0.736950,1.613073,-0.088289
76000,-0.524330,-0.857124,8.295909,-1.469774,0.834447,-0.531037
80000,-0.653617,-0.864307,8.317456,-2.385804,0.529104,-0.744777
84000,-0.694318,-0.857124,8.288726,-3.378171,0.712310,-0.927984
88000,-0.720655,-0.893037,8.350976,-4.324736,0.834447,-0.744777
92000,-0.761356,-0.943315,8.511387,-5.133897,0.941318,-0.836380
96000,-0.627281,-0.979228,8.652645,-5.561378,2.162692,-0.836380
100000,-0.672771,-1.108515,8.803479,-5.454507,3.063455,-0.851648
104000,-0.826000,-1.197101,8.916007,-5.240767,4.162692,-0.912716
108000,-0.816423,-1.264138,9.107543,-4.782751,4.086356,-0.653174
112000,-1.019930,-1.247379,9.184157,-4.110995,5.017653,-0.439434
116000,-1.115698,-1.371878,9.291897,-3.210232,3.368799,-0.256228
120000,-1.024718,-1.340753,9.342175,-1.927789,3.781013,0.064383
124000,-1.115698,-1.441309,9.308656,-0.889621,3.674142,0.873543
128000,-1.134852,-1.414973,9.198523,0.255417,3.445134,0.949879
132000,-1.106121,-1.391031,9.184157,1.018775,3.277195,1.636902
136000,-0.986411,-1.376666,9.133880,1.598928,2.849715,1.804841
140000,-0.955287,-1.345541,8.858546,1.889004,2.987119,1.896444
144000,-0.909797,-1.259350,8.707711,1.889004,2.559638,1.942245
148000,-0.878672,-1.206678,8.633492,1.736333,2.452768,2.079650
152000,-0.900220,-1.139640,8.580819,1.812669,2.681776,2.064383
156000,-0.802058,-1.096544,8.523358,1.690531,3.048188,2.430795
160000,-0.770933,-0.981623,8.379706,2.026409,2.910783,2.155986
164000,-0.651223,-0.890643,8.324639,1.644730,3.277195,2.125452
168000,-0.627281,-0.924162,8.243237,1.140913,3.109257,1.820108
172000,-0.667982,-0.854730,8.214506,0.453890,2.712310,1.560566
176000,-0.646434,-0.866701,8.233660,-0.065194,2.513837,1.255223
180000,-0.620098,-0.907402,8.092402,-1.011759,2.193226,1.133085
184000,-0.617704,-0.926556,8.307879,-2.126262,2.452768,0.965146
188000,-0.536301,-0.948104,8.327033,-2.569010,2.681776,0.629268
192000,-0.648829,-0.936133,8.406042,-3.103362,2.651241,0.446062
196000,-0.787692,-1.036689,8.415619,-3.576644,2.987119,0.598734
200000,-0.790087,-1.070208,8.657434,-4.034659,3.231394,0.461329
204000,-0.792481,-1.137246,8.693346,-4.065194,3.597806,0.904078
208000,-0.878672,-1.230620,8.896853,-3.820919,3.658875,0.980413
212000,-0.790087,-1.223437,8.985439,-3.546110,4.147425,1.133085
216000,-0.790087,-1.240196,8.980651,-3.057560,4.864982,1.239955
220000,-0.727837,-1.266533,8.904037,-2.630080,5.613073,1.438429
224000,-0.694318,-1.261744,8.949526,-1.912522,5.826814,1.224688
228000,-0.653617,-1.244985,9.002198,-1.179698,5.735211,0.751406
232000,-0.665588,-1.161188,8.882488,-0.660614,6.437501,0.629268
236000,-0.715866,-1.161188,8.803479,0.255417,7.399333,0.507131
240000,-0.773327,-1.103727,8.609550,0.484424,8.284829,0.354459
244000,-0.790087,-1.024718,8.420407,0.850837,8.956584,0.278123
248000,-0.840365,-1.094150,8.291121,0.560760,9.063455,-0.149358
252000,-1.022324,-1.082179,8.185776,-0.004125,8.315363,-0.332564
256000,-1.163582,-1.113304,8.245630,-0.446873,7.200860,-0.531037
260000,-1.333570,-1.106121,8.197746,-0.752217,6.025287,-0.011953
264000,-1.359907,-1.115698,8.228871,-1.103362,5.063455,0.522398
268000,-1.424550,-1.067814,8.305486,-1.088094,4.330631,1.194154
272000,-1.367089,-1.072602,8.279149,-1.194965,4.208493,1.545299
276000,-1.314417,-1.113304,8.437167,-1.164430,4.177959,1.697971
280000,-1.374272,-1.108515,8.458714,-1.133896,4.300097,2.094917
284000,-1.295263,-1.101333,8.492233,-0.935423,4.620707,1.957513
288000,-1.379060,-1.098939,8.420407,-1.088094,5.200860,2.644536
292000,-1.403002,-1.127669,8.255207,-1.286568,5.552005,2.919345
296000,-1.443704,-1.084573,8.259995,-1.683514,5.979486,3.377360
300000,-1.563414,-1.137246,8.209718,-2.172064,6.483303,3.697971
304000,-1.534683,-1.182736,8.305486,-2.569010,6.773379,3.988047
308000,-1.640028,-1.127669,8.135497,-3.301835,6.574905,4.568200
312000,-1.637634,-1.161188,8.125920,-3.988858,6.223761,5.133085
316000,-1.606509,-1.201889,8.147469,-4.584278,5.735211,5.346826
320000,-1.673547,-1.130063,7.958326,-5.454507,5.216127,5.835375
324000,-1.798046,-1.134852,8.022970,-6.202599,4.529104,6.110185
328000,-1.841141,-1.115698,8.032547,-7.271301,2.483302,6.675070
332000,-1.872266,-1.182736,8.176199,-8.019393,2.055821,7.087284
336000,-1.843535,-1.170765,8.451532,-8.538477,1.872615,7.575834
340000,-1.850718,-1.259350,8.537724,-8.324736,1.597806,7.789574
344000,-1.831564,-1.197101,8.741230,-7.759851,1.948951,8.278123
348000,-1.845930,-1.233014,8.901642,-6.645347,2.697043,8.201787
352000,-1.836353,-1.230620,8.990228,-5.775118,3.582539,8.644535
356000,-1.941698,-1.235408,8.880095,-4.981225,4.758111,8.736138
360000,-2.059013,-1.264138,8.875306,-4.355270,5.536737,9.194154
364000,-2.260126,-1.292869,8.717288,-3.759850,5.445135,9.743772
368000,-2.293645,-1.321599,8.559271,-2.981224,5.353531,10.247588
372000,-2.463634,-1.218649,8.463503,-2.691148,4.483303,10.400260
376000,-2.655170,-1.240196,8.470686,-2.416339,3.155058,11.255222
380000,-2.750938,-1.302446,8.315063,-2.248400,1.689409,11.789574
384000,-2.837129,-1.297657,8.283937,-2.645346,-0.356392,12.430795
388000,-2.918532,-1.340753,8.255207,-2.996492,-2.035782,13.102551
392000,-3.088520,-1.376666,8.259995,-3.683514,-3.440362,13.911711
396000,-3.222595,-1.539472,8.238448,-4.278934,-4.936545,14.873543
400000,-3.447650,-1.549049,8.101978,-5.133897,-6.295323,15.865909
404000,-3.629610,-1.731008,8.195353,-6.523210,-7.333491,17.346827
408000,-3.801992,-1.819593,8.346188,-7.530843,-7.684637,19.102551
412000,-3.948039,-1.999158,8.628703,-8.401072,-8.020514,20.751406
416000,-4.072537,-2.111686,8.757990,-8.798018,-7.928911,23.331558
420000,-4.134786,-2.224213,9.081207,-9.164431,-6.539598,25.621635
424000,-4.118027,-2.360683,9.119514,-9.103362,-4.051049,27.911713
428000,-4.091691,-2.422932,9.253590,-8.370538,-2.402194,30.140718
432000,-4.213795,-2.494758,9.334992,-7.973591,-0.463263,32.293392
436000,-4.424485,-2.597709,9.215282,-7.897255,0.559638,34.552933
440000,-4.393360,-2.616863,9.315839,-7.775118,2.422234,36.873543
444000,-4.570531,-2.626439,9.150639,-7.836186,1.628341,39.270489
448000,-4.570531,-2.624045,9.102755,-7.576645,1.994753,41.530033
452000,-4.537012,-2.674323,8.973468,-7.408706,2.025287,44.140720
456000,-4.637568,-2.736573,8.813056,-7.210233,1.246661,46.461330
460000,-4.644751,-2.681506,8.621520,-7.240767,0.147424,48.598736
464000,-4.695030,-2.655170,8.626308,-7.530843,-1.409827,50.812473
468000,-4.800375,-2.731784,8.458714,-7.927790,-2.280056,53.346825
472000,-4.867412,-2.722207,8.396465,-8.263667,-3.257156,55.972782
476000,-5.001487,-2.777274,8.370130,-8.630079,-3.974713,58.827744
480000,-4.994305,-2.868254,8.367735,-9.561378,-4.203721,61.865910
484000,-5.262455,-2.925714,8.532935,-9.927790,-3.241888,65.239960
488000,-5.284003,-2.964022,8.647857,-9.622446,-2.295324,69.255226
492000,-5.264850,-2.990358,8.588001,-9.591911,-1.135018,72.919342
496000,-5.284003,-2.975993,8.614338,-8.981225,0.177959,76.736137
500000,-5.118803,-2.987964,8.525752,-8.446874,1.933684,80.003311
504000,-5.085284,-3.078943,8.468291,-8.813286,5.399333,83.591103
508000,-5.214571,-3.045424,8.271967,-9.271301,3.353531,86.522400
512000,-5.075707,-3.007117,8.276755,-10.278934,0.895516,88.812477
516000,-4.881777,-3.016694,8.362947,-11.011759,-0.234255,90.980415
520000,-4.805163,-3.102885,8.382100,-10.950690,-1.791507,92.797211
524000,-4.783615,-3.138798,8.513782,-10.965958,-3.760972,94.446060
528000,-4.807557,-3.203442,8.547300,-10.691149,-6.463263,96.155983
532000,-4.821922,-3.155558,8.599973,-10.126263,-9.150286,97.820107
536000,-4.774038,-3.239355,8.487445,-9.469774,-12.967080,99.331558
540000,-4.730943,-3.287239,8.540117,-9.118629,-16.310591,100.705605
544000,-4.735731,-3.203442,8.693346,-8.645347,-20.325859,102.369728
548000,-4.639963,-3.246537,8.714894,-8.049927,-22.493797,104.033852
552000,-4.608838,-3.258508,8.762778,-7.378171,-22.692270,106.094917
556000,-4.577713,-3.239355,8.621520,-7.362904,-22.157919,108.675072
560000,-4.568137,-3.277662,8.623915,-7.515575,-21.638836,111.102554
564000,-4.388572,-3.210624,8.746018,-7.454507,-20.524332,113.789574
568000,-4.175488,-3.205836,8.695741,-7.454507,-18.417461,116.446060
572000,-4.089296,-3.157952,8.738836,-7.683515,-17.287691,118.766670
576000,-3.957615,-3.205836,8.836999,-7.775118,-15.776240,121.148354
580000,-3.744531,-3.138798,8.947132,-7.133897,-13.089217,123.285759
584000,-3.581726,-3.071761,8.939949,-6.278934,-10.051049,125.178886
588000,-3.397372,-3.043030,8.813056,-6.110995,-7.822041,126.705605
592000,-3.423708,-3.038242,8.815451,-6.172065,-6.570133,128.217056
596000,-3.335123,-2.928109,8.552089,-6.187331,-7.211354,129.606369
600000,-3.160346,-2.992752,8.683769,-6.141530,-8.661736,130.613998
604000,-3.023877,-3.045424,8.650250,-5.820919,-10.066317,131.530029
608000,-2.954445,-2.964022,8.741230,-5.576645,-11.043416,132.446060
612000,-2.777274,-3.059790,8.686164,-5.271301,-11.043416,133.514771
616000,-2.607286,-3.040636,8.801085,-4.965958,-9.730438,134.400269
620000,-2.523489,-2.942474,8.760384,-5.240767,-10.524332,135.026215
624000,-2.456451,-2.937685,8.784326,-5.515575,-11.760973,136.049118
628000,-2.176329,-2.868254,8.686164,-5.729317,-12.539598,136.415527
632000,-2.015918,-2.877831,8.772355,-5.836186,-12.814408,136.797211
636000,-1.742979,-2.827552,8.619126,-5.561378,-12.096850,136.476593
640000,-1.635240,-2.767697,8.619126,-5.332370,-11.913645,135.713242
644000,-1.525106,-2.700660,8.667010,-4.736950,-12.218988,135.224686
648000,-1.584962,-2.746149,8.717288,-4.691149,-13.898377,134.552933
652000,-1.572991,-2.767697,8.504205,-4.156797,-15.440362,134.278122
656000,-1.596933,-2.825158,8.485051,-3.805652,-16.906012,133.713242
660000,-1.642422,-2.834735,8.401254,-3.698782,-18.844942,133.133087
664000,-1.690306,-2.880225,8.489840,-3.469774,-20.280056,133.056747
668000,-1.771709,-2.896984,8.585608,-3.164430,-21.379293,133.178894
672000,-1.848324,-2.906561,8.535329,-2.492675,-22.722805,134.018585
676000,-1.845930,-2.885013,8.398860,-2.049927,-23.348759,134.690338
680000,-1.759738,-2.923320,8.269572,-2.156797,-22.906012,135.346832
684000,-1.704672,-2.918532,8.295909,-1.820919,-22.829676,136.232315
688000,-1.738190,-2.985569,8.317456,-1.775118,-21.989981,136.873550
692000,-1.719037,-3.009511,8.348581,-2.004125,-21.073950,137.896439
696000,-1.656788,-3.014300,8.298303,-2.233133,-20.081583,138.812469
700000,-1.687912,-3.093309,8.226477,-2.263667,-18.921278,139.942245
704000,-1.680730,-3.129222,8.082825,-2.965957,-18.356392,141.087280
708000,-1.505953,-3.215413,8.104373,-3.805652,-18.386927,141.881180
712000,-1.520318,-3.330335,8.190564,-4.828553,-17.593035,142.522400
716000,-1.673547,-3.361459,8.202535,-5.194965,-17.486164,144.186523
720000,-1.568202,-3.399766,8.092402,-5.637713,-18.066317,145.835373
724000,-1.340753,-3.430891,7.955932,-7.057561,-17.089216,146.934616
728000,-1.201889,-3.462016,8.070854,-8.553743,-17.440363,148.384995
732000,-1.156399,-3.473987,8.245630,-8.813286,-18.921278,149.942245
736000,-0.878672,-3.430891,8.508993,-8.599545,-19.333492,151.392624
740000,-0.438139,-3.229778,8.540117,-8.706415,-18.844942,151.835373
744000,-0.067038,-3.172317,8.528147,-8.950690,-16.661736,152.247589
748000,0.210690,-2.990358,8.580819,-9.423973,-14.814408,151.926971
752000,0.600945,-2.899378,8.566454,-9.714049,-13.379293,151.209427
756000,0.926556,-2.762909,8.626308,-9.775118,-11.822042,149.621628
760000,1.113304,-2.674323,8.825027,-9.881988,-10.539598,147.774307
764000,1.182736,-2.595315,8.884883,-9.210233,-9.852576,146.003311
768000,1.340753,-2.573767,8.858546,-8.294202,-8.218987,143.820114
772000,1.462857,-2.494758,8.846576,-7.469774,-7.028148,141.667435
776000,1.350330,-2.506729,8.647857,-6.859087,-6.783873,139.636902
780000,1.369483,-2.446874,8.676587,-6.095729,-7.699903,137.499496
784000,1.252167,-2.566584,8.599973,-4.874354,-8.615934,135.377365
788000,1.046266,-2.480393,8.578424,-4.263667,-10.432729,133.621628
792000,1.005565,-2.540248,8.518570,-3.408705,-12.707538,132.262863
796000,1.017536,-2.506729,8.255207,-2.645346,-14.112118,130.919342
800000,0.816423,-2.509123,8.154651,-2.309469,-16.142653,130.262863
804000,0.761356,-2.444480,8.082825,-2.263667,-18.310591,129.072021
808000,0.720655,-2.358289,8.283937,-2.065194,-19.760973,128.552933
812000,0.735020,-2.418144,8.188169,-1.912522,-20.417461,128.155991
816000,0.928950,-2.205060,8.161834,-1.790385,-20.402195,127.560562
820000,1.053449,-2.152387,8.094796,-1.805652,-18.554867,126.919342
824000,1.199495,-2.147599,8.015787,-2.034660,-16.142653,126.064384
828000,1.132457,-2.042254,7.917625,-1.912522,-15.135018,125.301025
832000,1.103727,-2.001553,7.958326,-1.164430,-15.058682,125.072014
836000,1.326388,-1.989582,7.754819,-1.347636,-13.760973,124.675072
840000,1.498770,-1.927332,7.580042,-2.248400,-12.524332,124.232323
844000,1.640028,-1.860295,7.457938,-3.912522,-11.715171,123.010948
848000,1.855506,-1.879448,7.422025,-5.790385,-10.600668,121.652168
852000,1.941698,-1.793257,7.577648,-7.836186,-10.722805,120.461327
856000,2.130840,-1.692701,7.639898,-9.072827,-11.241889,118.766670
860000,2.564190,-1.625663,7.867347,-9.423973,-8.997614,117.377357
864000,2.691083,-1.496376,7.845799,-10.798018,-7.638835,115.117821
868000,2.846706,-1.405396,7.872135,-12.477408,-8.218987,112.537666
872000,2.911349,-1.345541,7.920019,-13.530843,-8.509065,109.896446
876000,2.870648,-1.290475,8.188169,-13.668248,-8.509065,107.377357
880000,2.916138,-1.295263,8.547300,-13.042293,-8.325858,105.056747
884000,2.904167,-1.266533,8.432379,-12.523210,-7.669369,102.797211
888000,2.937685,-1.233014,8.336611,-11.820919,-6.707537,100.217056
892000,2.717419,-1.211466,8.099585,-11.652981,-7.883110,97.102554
896000,2.473210,-1.280898,8.080431,-11.317102,-10.768606,94.400261
900000,2.240973,-1.304840,8.377312,-11.378171,-13.577766,92.140717
904000,2.109292,-1.352724,8.667010,-11.362904,-15.654102,90.568199
908000,2.080561,-1.273715,8.906430,-10.309469,-15.898377,89.194153
912000,2.070984,-1.218649,8.844181,-9.027026,-15.760973,87.789574
916000,2.023100,-1.240196,8.985439,-7.271301,-15.165553,86.354462
920000,1.896208,-1.216254,9.200917,-4.691149,-14.677003,85.804840
924000,1.951274,-1.192312,9.308656,-2.507942,-12.264790,85.331558
928000,2.133234,-1.084573,9.174581,-1.027026,-9.165553,84.644539
932000,2.164358,-1.017536,9.107543,0.072211,-5.364026,83.972778
936000,2.018312,-0.885855,8.777143,0.255417,-2.341125,83.392632
940000,2.032677,-0.871489,8.643068,0.942440,-0.280056,82.598732
944000,2.018312,-0.799663,8.437167,0.881371,0.376432,81.972778
948000,2.243367,-0.718261,8.348581,0.530226,1.109257,81.148354
952000,2.365471,-0.608127,8.157045,-0.889621,1.689409,80.155983
956000,2.506729,-0.450110,7.831434,-2.691148,3.842081,78.720871
960000,2.528277,-0.390255,7.663840,-4.798018,4.712310,76.965149
964000,2.571373,-0.313640,7.627927,-6.324736,4.422234,75.530029
968000,2.580950,-0.270545,7.694964,-7.576645,2.590173,73.331558
972000,2.662352,-0.270545,7.934384,-8.721683,0.864982,71.423164
976000,2.839523,-0.205901,8.101978,-9.210233,-0.371659,69.499496
980000,2.801216,-0.208296,8.137892,-10.080462,-0.768606,67.270493
984000,2.671929,-0.210690,8.221688,-10.935423,-0.585400,65.759041
988000,2.552219,-0.265756,8.279149,-11.408706,-0.173186,64.232323
992000,2.559402,-0.239420,8.350976,-11.225499,-0.325858,62.965145
996000,2.604892,-0.205901,8.336611,-10.904889,-0.844942,61.423161
1000000,2.659958,-0.172383,8.142680,-11.546110,-1.425095,60.125454
1004000,2.662352,-0.114922,8.149862,-12.233132,-1.180820,58.858276
1008000,2.801216,-0.045490,8.142680,-13.057561,-0.982347,57.484230
1012000,3.045424,0.079009,8.236053,-13.561378,-1.089217,55.453697
1016000,3.131616,0.150835,8.248025,-13.515576,-1.822041,53.163620
1020000,3.143587,0.158017,8.195353,-13.454507,-3.165553,50.461330
1024000,3.100491,0.186748,8.415619,-13.546111,-5.028148,47.789574
1028000,2.997540,0.325611,8.504205,-13.408706,-6.127385,45.331558
1032000,3.026271,0.316035,8.827422,-12.385804,-6.936545,42.980415
1036000,3.397372,0.311246,8.951921,-10.385805,-1.577766,41.743774
1040000,2.777274,0.476446,9.014170,-7.836186,-5.470896,37.911713
1044000,2.679112,0.447716,8.734048,-7.790385,-16.325857,34.339191
1048000,2.710236,0.397437,8.645462,-7.881988,-23.516699,31.270491
1052000,2.585738,0.363919,8.753201,-8.981225,-26.967079,29.377361
1056000,2.636016,0.351948,9.006987,-9.378171,-24.860210,27.957514
1060000,2.638410,0.330400,8.992621,-8.691149,-19.333492,26.552933
1064000,2.521094,0.344765,8.961497,-8.706415,-14.463263,25.972780
1068000,2.442086,0.244209,8.863335,-8.492675,-12.142653,24.904078
1072000,2.535460,0.272939,8.985439,-9.149163,-8.967080,23.575834
1076000,2.468422,0.196325,8.942344,-9.790385,-7.531965,22.186522
1080000,2.506729,0.158017,9.028535,-10.446874,-4.524331,20.827742
1084000,2.276886,0.222661,8.877700,-11.133897,-3.531965,19.820108
1088000,2.123657,0.026336,9.267955,-11.530843,5.979486,19.041483
1092000,1.953669,0.050278,9.143456,-11.515575,2.315363,17.346827
1096000,1.872266,0.069432,9.004593,-11.256034,-4.264789,15.453695
1100000,1.881842,0.191536,8.851364,-11.225499,-6.035781,13.835375
1104000,1.886631,0.179565,8.918402,-11.561378,-6.386927,12.201787
1108000,1.735796,0.165200,9.124303,-11.439240,-4.814407,10.888810
1112000,1.750161,0.059855,9.308656,-11.103362,-2.112118,9.835375
1116000,1.551443,0.069432,9.267955,-9.576645,0.529104,8.537665
1120000,1.338359,-0.019154,9.210494,-8.569011,1.048188,7.362093
1124000,1.058237,0.011971,9.337387,-8.278934,0.269562,5.942245
1128000,0.921768,-0.062249,9.488221,-7.561378,-0.921278,5.270490
1132000,0.785298,-0.143652,9.758766,-6.278934,-0.875476,4.888811
1136000,0.663194,-0.189142,9.667787,-5.088095,-0.921278,4.278123
1140000,0.639252,-0.186748,9.830592,-3.759850,-1.119751,3.957513
1144000,0.656011,-0.239420,9.662998,-1.820919,-2.860209,3.224688
1148000,0.615310,-0.248997,9.397242,-0.523209,-4.890743,2.598734
1152000,0.667982,-0.284910,9.279925,0.056943,-5.623568,1.468963
1156000,0.572214,-0.296881,9.059659,0.255417,-5.165553,0.934612
1160000,0.454898,-0.306458,8.932767,-0.080461,-5.012881,0.461329
1164000,0.423774,-0.304064,8.860941,-0.523209,-5.028148,0.018581
1168000,0.493206,-0.306458,8.913613,-1.423972,-4.997613,-0.439434
1172000,0.445322,-0.256180,9.090784,-1.500308,-4.417461,-0.912716
1176000,0.469264,-0.217872,8.906430,-1.668247,-3.455629,-1.324930
1180000,0.397437,-0.229843,8.863335,-1.805652,-2.875476,-2.332564
1184000,0.325611,-0.129287,8.870518,-2.340003,-1.455629,-3.172258
1188000,0.225055,-0.143652,8.841787,-2.630080,-1.608301,-3.981419
1192000,-0.045490,-0.201113,8.916007,-2.691148,-1.531965,-4.531037
1196000,-0.126893,-0.215478,8.920795,-2.401072,-0.814408,-4.897449
1200000,-0.287304,-0.205901,8.975863,-2.202598,-0.127385,-5.034853
1204000,-0.332794,-0.248997,8.935161,-2.324736,0.361165,-5.187525
1208000,-0.296881,-0.160412,8.889671,-2.523209,0.849715,-5.752411
1212000,-0.409408,-0.299275,8.836999,-2.981224,3.078722,-5.248594
1216000,-0.675165,-0.316035,8.784326,-2.981224,2.452768,-4.958518
1220000,-0.612916,-0.373495,8.999804,-2.767484,2.269562,-4.485235
1224000,-0.701501,-0.421380,8.853758,-2.798018,2.177959,-3.706610
1228000,-0.612916,-0.383072,8.858546,-2.446873,2.315363,-3.172258
1232000,-0.538695,-0.387861,8.892065,-2.614812,3.124524,-2.393632
1236000,-0.395043,-0.354342,8.918402,-1.988858,4.055821,-2.424167
1240000,-0.292093,-0.289698,8.889671,-1.714049,4.635974,-2.592106
1244000,-0.225055,-0.215478,8.956709,-1.347636,4.177959,-3.279129
1248000,-0.155623,-0.138864,8.839393,-0.462140,3.368799,-3.935617
1252000,-0.177171,-0.146046,8.892065,0.576027,2.239028,-4.821113
1256000,-0.189142,-0.160412,8.743625,1.247783,1.124524,-5.584472
1260000,-0.351948,-0.143652,8.801085,1.721066,2.544371,-5.767678
1264000,-0.423774,-0.272939,8.609550,2.621829,2.590173,-5.767678
1268000,-0.574608,-0.289698,8.607155,3.614195,2.025287,-5.813479
1272000,-0.541090,-0.342371,8.470686,3.858470,0.971852,-6.088289
1276000,-0.615310,-0.349553,8.449138,3.553127,0.987119,-5.981419
1280000,-0.598550,-0.371101,8.362947,3.446256,0.269562,-5.905083
1284000,-0.658405,-0.397437,8.358158,3.110379,-0.310591,-5.569205
1288000,-0.596156,-0.481235,8.353370,2.713432,-0.386927,-5.508136
1292000,-0.550666,-0.548272,8.487445,2.606562,1.475669,-4.989052
1296000,-0.512359,-0.569820,8.355764,2.362287,2.651241,-4.744777
1300000,-0.478840,-0.579397,8.315063,1.827936,3.216127,-4.668441
1304000,-0.438139,-0.569820,8.305486,1.247783,4.101623,-4.943251
1308000,-0.541090,-0.495600,8.219295,0.591295,3.338264,-5.111189
1312000,-0.660800,-0.533907,8.147469,0.209615,3.124524,-5.080655
1316000,-0.840365,-0.478840,8.195353,-0.309469,0.834447,-4.973785
1320000,-0.641646,-0.423774,8.128315,-0.645346,0.284829,-5.156991
1324000,-0.624887,-0.337582,8.231265,-1.256034,1.032921,-5.080655
1328000,-0.708684,-0.237026,8.125920,-1.607178,1.093989,-5.111189
1332000,-0.799663,-0.289698,8.233660,-2.141530,0.422234,-4.943251
1336000,-0.809240,-0.318429,8.092402,-2.309469,0.254295,-4.958518
1340000,-0.648829,-0.409408,8.252813,-2.507942,-0.493797,-5.111189
1344000,-0.648829,-0.332794,8.358158,-2.904888,-0.814408,-5.340197
1348000,-0.735020,-0.538695,8.453926,-3.240766,-1.531965,-5.599739
1352000,-0.723049,-0.502782,8.719683,-2.675881,-2.234255,-5.828747
1356000,-0.768539,-0.565032,8.743625,-2.477408,-2.814408,-5.355464
1360000,-0.746991,-0.641646,8.820239,-1.668247,-3.516698,-5.263861
1364000,-0.711078,-0.653617,8.978256,-1.149163,-3.669369,-5.111189
1368000,-0.665588,-0.742203,9.160215,-0.248400,-3.654102,-4.851647
1372000,-0.641646,-0.730232,9.210494,0.606562,-4.051049,-4.500503
1376000,-0.725443,-0.751779,9.267955,1.476791,-2.936545,-4.073022
1380000,-0.658405,-0.739808,9.313444,2.362287,-1.730438,-3.492869
1384000,-0.519542,-0.620098,9.217676,2.591295,0.254295,-3.401266
1388000,-0.555455,-0.550666,9.030929,3.186715,1.582539,-3.401266
1392000,-0.533907,-0.512359,8.882488,3.247783,2.147424,-3.370732
1396000,-0.567426,-0.423774,8.755595,2.682898,2.681776,-3.294396
1400000,-0.600945,-0.347159,8.542512,2.209615,2.697043,-3.676075
1404000,-0.524330,-0.260968,8.446744,1.598928,3.597806,-3.645541
1408000,-0.562637,-0.260968,8.444349,1.293585,3.002386,-3.553938
1412000,-0.682347,-0.248997,8.257602,0.438623,2.437501,-3.630274
1416000,-0.715866,-0.136469,8.092402,-1.271301,0.926050,-3.431800
1420000,-0.713472,-0.282516,8.267179,-1.881988,-1.318224,-3.340197
1424000,-0.703895,-0.275333,8.315063,-1.988858,-1.928911,-3.355464
1428000,-0.648829,-0.299275,8.468291,-2.538476,-2.280056,-2.989052
1432000,-0.615310,-0.356736,8.485051,-3.133896,-2.157919,-2.866915
1436000,-0.567426,-0.409408,8.693346,-3.500308,-1.837308,-2.989052
1440000,-0.521936,-0.438139,8.769960,-3.805652,-1.654102,-2.927984
1444000,-0.557849,-0.519542,8.803479,-3.897255,-2.646469,-3.447068
1448000,-0.541090,-0.507571,8.832211,-3.881988,-3.318224,-3.874548
1452000,-0.672771,-0.627281,8.927979,-3.775118,-3.364026,-3.813480
1456000,-0.715866,-0.588974,9.033323,-3.393438,-3.073950,-3.584472
1460000,-0.802058,-0.531513,8.947132,-3.393438,-2.509064,-2.989052
1464000,-0.651223,-0.577003,9.064447,-3.271301,-1.944179,-2.439434
1468000,-0.648829,-0.529119,9.131485,-2.431606,-1.425095,-2.149358
1472000,-0.486023,-0.423774,9.272743,-1.866720,-0.783873,-1.813480
1476000,-0.368707,-0.397437,9.097966,-0.828552,-0.234255,-2.011953
1480000,-0.339977,-0.339977,9.239224,0.056943,0.590173,-2.454701
1484000,-0.335188,-0.232238,9.210494,1.232516,1.185592,-2.943251
1488000,-0.488417,-0.239420,9.026140,1.766867,2.055821,-2.927984
1492000,-0.579397,-0.186748,8.841787,2.148547,2.193226,-2.882182
1496000,-0.612916,-0.179565,8.662222,1.873737,0.803913,-2.851648
1500000,-0.617704,-0.169988,8.556877,1.827936,0.086356,-3.080655
1504000,-0.579397,-0.155623,8.487445,1.415722,-1.012881,-3.187526
1508000,-0.541090,-0.203507,8.463503,0.972974,-1.867843,-3.523403
1512000,-0.545878,-0.282516,8.468291,0.240150,-2.829675,-4.027220
1516000,-0.562637,-0.342371,8.659827,-0.278934,-3.425095,-4.302029
1520000,-0.624887,-0.397437,8.690952,-0.721682,-3.959446,-4.393632
1524000,-0.718261,-0.509965,8.793902,-0.981224,-4.722805,-4.225693
1528000,-0.797269,-0.584185,8.889671,-1.439240,-4.157919,-3.782945
1532000,-0.775721,-0.624887,9.026140,-1.072828,-3.791507,-3.416533
1536000,-0.749385,-0.703895,9.085996,-1.042293,-2.570133,-2.729510
1540000,-0.708684,-0.675165,9.131485,-0.813286,-2.020514,-2.363098
1544000,-0.639252,-0.684742,9.050082,-0.569010,-0.463263,-1.324930
1548000,-0.531513,-0.617704,8.971074,-0.569010,0.941318,-0.897449
1552000,-0.488417,-0.462081,8.896853,-0.752217,2.208493,-0.637907
1556000,-0.280122,-0.466869,8.827422,-0.889621,3.200860,-0.302029
1560000,-0.174777,-0.359130,8.734048,-0.736950,4.284829,-0.485235
1564000,-0.237026,-0.222661,8.544906,-0.584278,4.590173,-0.744777
1568000,-0.208296,-0.131681,8.607155,-0.675881,4.361165,-1.218060
1572000,-0.203507,-0.052672,8.444349,-0.691148,3.643608,-1.737144
1576000,-0.222661,0.011971,8.559271,-0.065194,1.658875,-2.103556
1580000,-0.325611,-0.102951,8.623915,0.911905,0.590173,-2.790579
1584000,-0.435745,-0.043096,8.664616,1.232516,-0.585400,-3.126457
1588000,-0.514753,-0.146046,8.619126,1.568394,-1.623568,-3.156991
1592000,-0.565032,-0.122104,8.573636,1.598928,-2.875476,-3.218060
1596000,-0.517148,-0.205901,8.707711,1.415722,-3.898377,-3.095922
1600000,-0.557849,-0.251391,8.614338,1.156180,-3.822041,-3.263861
1604000,-0.598550,-0.308852,8.762778,0.835569,-3.364026,-2.897449
1608000,-0.667982,-0.380678,8.623915,0.514959,-3.516698,-2.561571
1612000,-0.557849,-0.440533,8.674192,0.041676,-3.440362,-2.164625
1616000,-0.435745,-0.474052,8.561666,-0.492675,-2.967079,-1.615006
1620000,-0.332794,-0.548272,8.650250,-1.042293,-2.203721,-1.294396
1624000,-0.351948,-0.538695,8.683769,-1.149163,-1.715171,-1.447067
1628000,-0.251391,-0.579397,8.705317,-1.607178,-0.356392,-1.141724
1632000,-0.150835,-0.667982,8.616732,-1.591912,0.361165,-1.553938
1636000,-0.205901,-0.543484,8.678981,-2.156797,1.002386,-1.538671
1640000,-0.105345,-0.560243,8.571242,-1.790385,0.864982,-2.179892
1644000,-0.217872,-0.474052,8.497022,-3.072828,1.307730,-2.179892
1648000,-0.248997,-0.423774,8.578424,-2.981224,0.635974,-2.500503
1652000,-0.263362,-0.426168,8.549694,-2.569010,0.635974,-2.897449
1656000,-0.328006,-0.347159,8.712500,-2.233133,0.132157,-2.912716
1660000,-0.347159,-0.435745,8.724471,-1.454507,-0.722805,-3.340197
1664000,-0.378284,-0.354342,8.686164,-0.920156,-0.371659,-3.462335
1668000,-0.502782,-0.404620,8.707711,-1.393438,-0.600667,-3.630274
1672000,-0.562637,-0.385466,8.599973,-1.423972,-1.226621,-3.569205
1676000,-0.596156,-0.476446,8.537724,-1.958324,-1.715171,-3.538671
1680000,-0.646434,-0.469264,8.583213,-2.309469,-1.867843,-2.958518
1684000,-0.502782,-0.450110,8.690952,-2.599545,-1.699904,-2.882182
1688000,-0.469264,-0.457293,8.746018,-2.904888,-0.738072,-2.561571
1692000,-0.328006,-0.466869,8.784326,-3.301835,0.162692,-2.332564
1696000,-0.244209,-0.521936,8.865729,-3.454507,1.002386,-2.561571
1700000,-0.328006,-0.545878,8.949526,-3.164430,1.689409,-2.805846
1704000,-0.421380,-0.603339,8.975863,-2.798018,2.071089,-3.095922
1708000,-0.316035,-0.581791,9.014170,-2.981224,2.162692,-3.004319
1712000,-0.404620,-0.591368,9.129091,-2.538476,2.544371,-3.065388
1716000,-0.450110,-0.577003,9.057265,-1.729316,2.071089,-3.095922
1720000,-0.524330,-0.572214,9.097966,-0.340003,1.368798,-3.126457
1724000,-0.553061,-0.531513,8.937555,0.011142,1.124524,-3.187526
1728000,-0.567426,-0.526724,8.911219,0.347020,0.742844,-3.279129
1732000,-0.569820,-0.486023,8.710106,0.377554,0.177959,-3.065388
1736000,-0.581791,-0.469264,8.781932,0.179081,-0.341125,-3.172258
1740000,-0.617704,-0.423774,8.681376,0.056943,-1.135018,-3.309663
1744000,-0.691924,-0.457293,8.655039,0.072211,-1.486163,-3.019587
1748000,-0.694318,-0.514753,8.597578,-0.309469,-1.180820,-2.653174
1752000,-0.749385,-0.517148,8.599973,-0.584278,-1.364026,-2.195159
1756000,-0.677559,-0.495600,8.801085,-0.538476,-0.341125,-1.905083
1760000,-0.658405,-0.507571,8.880095,-0.645346,0.941318,-1.477602
1764000,-0.586579,-0.553061,8.688558,-0.935423,1.597806,-1.248594
1768000,-0.620098,-0.529119,8.736442,-0.981224,2.116890,-1.172258
1772000,-0.557849,-0.462081,8.846576,-0.935423,3.063455,-1.050121
1776000,-0.562637,-0.418985,8.633492,-1.271301,3.567272,-0.744777
1780000,-0.507571,-0.387861,8.769960,-1.378171,3.445134,-0.576838
1784000,-0.462081,-0.457293,8.951921,-0.614812,4.132157,-0.714243
1788000,-0.344765,-0.474052,8.899248,0.499691,4.483303,-0.989052
1792000,-0.325611,-0.457293,8.731653,1.614195,4.315363,-1.141724
1796000,-0.361524,-0.517148,8.705317,2.621829,3.139791,-1.615006
1800000,-0.395043,-0.385466,8.738836,2.621829,0.895516,-1.706609
1804000,-0.136469,-0.428562,8.925584,2.682898,3.658875,-1.355464
1808000,-0.069432,-0.354342,8.937555,2.576027,4.559639,-1.752411
1812000,0.064643,-0.248997,8.813056,2.652363,4.284829,-2.653174
1816000,0.141258,-0.225055,8.765172,2.896638,4.651241,-3.782945
1820000,0.026336,-0.282516,8.762778,2.484425,4.559639,-4.760045
1824000,-0.134075,-0.373495,8.813056,1.873737,2.864982,-5.553937
1828000,-0.363919,-0.418985,8.951921,1.369921,1.719944,-5.737144
1832000,-0.442927,-0.466869,9.066842,1.476791,0.742844,-5.477602
1836000,-0.512359,-0.474052,9.145850,1.583661,0.315363,-5.080655
1840000,-0.466869,-0.529119,9.133880,1.766867,0.376432,-5.019587
1844000,-0.383072,-0.500388,9.200917,1.507325,0.620707,-4.821113
1848000,-0.275333,-0.550666,9.222465,1.736333,1.246661,-4.698976
1852000,-0.308852,-0.557849,9.215282,2.285951,1.414600,-4.912716
1856000,-0.268151,-0.579397,9.363723,2.911905,2.239028,-5.019587
1860000,-0.217872,-0.538695,9.217676,3.186715,3.521470,-5.050121
1864000,-0.306458,-0.526724,9.117120,3.140913,4.926051,-4.622640
1868000,-0.363919,-0.493206,9.009381,3.079844,6.284829,-4.760045
1872000,-0.402226,-0.421380,8.872911,3.217249,7.200860,-4.286762
1876000,-0.392649,-0.416591,8.671799,3.079844,7.460402,-4.347831
1880000,-0.375890,-0.361524,8.626308,2.911905,7.475669,-4.347831
1884000,-0.306458,-0.349553,8.623915,2.240149,7.399333,-4.286762
1888000,-0.287304,-0.375890,8.501810,1.965340,7.124524,-4.546304
1892000,-0.304064,-0.316035,8.360553,1.568394,6.605440,-4.790579
1896000,-0.272939,-0.423774,8.386889,1.461524,6.147425,-4.989052
1900000,-0.268151,-0.363919,8.319851,1.293585,5.002387,-5.324930
1904000,-0.318429,-0.395043,8.339005,1.095111,3.948951,-5.981419
1908000,-0.371101,-0.311246,8.429984,1.140913,3.185592,-5.981419
1912000,-0.378284,-0.349553,8.439561,0.835569,2.101623,-6.424167
1916000,-0.373495,-0.366313,8.494628,0.606562,1.200860,-6.805846
1920000,-0.526724,-0.397437,8.437167,0.774501,0.971852,-6.821113
1924000,-0.567426,-0.418985,8.621520,1.369921,0.284829,-6.668441
1928000,-0.667982,-0.483629,8.786720,2.301218,-0.066316,-6.271495
1932000,-0.658405,-0.557849,8.829816,3.583661,1.552005,-6.011953
1936000,-0.667982,-0.529119,8.588001,3.980608,2.635974,-5.431800
1940000,-0.701501,-0.493206,8.465898,4.392821,3.811547,-5.141724
1944000,-0.679953,-0.426168,8.370130,4.224883,4.086356,-4.668441
1948000,-0.720655,-0.476446,8.389283,3.873737,3.582539,-4.592105
1952000,-0.684742,-0.495600,8.197746,3.156180,3.277195,-4.317297
1956000,-0.634463,-0.464475,8.180987,2.331753,3.170325,-4.271495
1960000,-0.665588,-0.500388,8.171411,1.385188,2.727577,-3.950884
1964000,-0.679953,-0.447716,8.250419,0.240150,2.620707,-3.935617
1968000,-0.656011,-0.450110,8.312668,-0.217866,2.010020,-4.057755
1972000,-0.622492,-0.397437,8.530540,-0.141530,1.155058,-4.103556
1976000,-0.689530,-0.411803,8.429984,-0.065194,0.269562,-4.454701
1980000,-0.854730,-0.380678,8.394072,-0.187331,-0.447995,-4.469968
1984000,-0.869095,-0.428562,8.439561,-0.553744,-0.921278,-4.073022
1988000,-0.945710,-0.474052,8.374918,-0.614812,-1.119751,-3.615006
1992000,-1.015141,-0.464475,8.391677,-1.149163,-1.226621,-3.340197
1996000,-0.976834,-0.474052,8.413225,-1.256034,-1.241889,-3.080655
