time_us,ax,ay,az,gx,gy,gz
0,-0.560243,-1.029507,8.475474,-4.095729,-0.600667,1.438429
4000,-0.708684,-1.082179,8.391677,-4.263667,-0.295324,1.682703
8000,-0.598550,-1.024718,8.580819,-4.233133,0.513837,1.988047
12000,-0.730232,-1.039083,8.511387,-4.507942,1.216127,2.217055
16000,-0.761356,-1.065420,8.597578,-4.843820,1.139791,2.797207
20000,-0.826000,-1.098939,8.738836,-4.935423,1.032921,2.888810
24000,-0.758962,-1.122881,8.841787,-4.599545,0.635974,3.591101
28000,-0.694318,-1.142034,8.868123,-4.324736,1.139791,3.728505
32000,-0.723049,-1.173159,8.920795,-3.775118,0.773379,3.804841
36000,-0.658405,-1.098939,9.064447,-3.393438,0.635974,4.018581
40000,-0.629675,-1.079785,9.172187,-2.996492,-0.570133,3.988047
44000,-0.596156,-1.182736,9.174581,-2.599545,-0.768606,4.079650
48000,-0.620098,-1.189918,9.184157,-1.973591,-0.768606,4.201787
52000,-0.658405,-1.192312,9.145850,-1.652980,-0.249522,4.217055
56000,-0.644040,-1.158794,9.117120,-1.103362,0.590173,4.323925
60000,-0.632069,-1.211466,9.184157,-1.027026,1.063455,4.827742
64000,-0.672771,-1.264138,9.157822,-0.569010,1.979486,4.827742
68000,-0.684742,-1.278504,9.074024,-0.309469,3.048188,5.087284
72000,-0.782904,-1.271321,9.021352,0.056943,3.552005,5.178887
76000,-0.928950,-1.264138,8.947132,-0.156797,4.147425,5.377360
80000,-0.940921,-1.288081,8.848969,-0.080461,4.468035,5.942245
84000,-0.995988,-1.312023,8.999804,-0.538476,4.483303,6.232322
88000,-1.041478,-1.331176,8.959103,-0.446873,4.132157,6.705605
92000,-1.115698,-1.309628,8.932767,-0.492675,3.872615,6.858276
96000,-1.201889,-1.237802,8.980651,-0.126262,3.292463,7.209421
100000,-1.367089,-1.321599,8.995016,-0.095728,2.742844,7.911711
104000,-1.381454,-1.379060,8.985439,-0.004125,2.284829,8.522398
108000,-1.345541,-1.369483,9.109938,-0.019392,1.552005,8.980413
112000,-1.383849,-1.302446,9.028535,-0.004125,0.727577,9.514764
116000,-1.264138,-1.295263,9.105149,-0.004125,0.071089,10.384994
120000,-1.254562,-1.292869,9.205706,0.072211,-0.203721,10.629268
124000,-1.295263,-1.374272,9.263166,0.056943,0.254295,11.407894
128000,-1.280898,-1.388637,9.320627,0.148546,0.406966,11.865910
132000,-1.297657,-1.400608,9.284714,-0.004125,0.697043,12.507131
136000,-1.273715,-1.395820,9.289502,-0.324736,0.697043,12.934611
140000,-1.345541,-1.493982,9.425972,-0.233133,1.109257,13.575833
144000,-1.283292,-1.534683,9.476251,0.316485,1.231394,14.354459
148000,-1.307234,-1.601721,9.512163,0.866104,1.887883,14.949879
152000,-1.319205,-1.541866,9.490616,1.446256,2.651241,15.850642
156000,-1.414973,-1.608904,9.334992,1.812669,2.910783,16.110186
160000,-1.424550,-1.632846,9.418790,2.041676,2.666508,17.087284
164000,-1.455675,-1.604115,9.289502,2.545493,2.773379,17.636902
168000,-1.572991,-1.649605,9.311050,3.156180,2.697043,18.064383
172000,-1.584962,-1.707066,9.145850,3.614195,1.887883,18.675070
176000,-1.702277,-1.628057,8.985439,3.843203,1.460402,19.133085
180000,-1.814805,-1.735796,9.143456,3.843203,0.254295,20.033850
184000,-1.881842,-1.781286,9.332599,4.423356,-1.012881,20.720873
188000,-1.843535,-1.841141,9.387665,5.156180,-1.562499,21.697971
192000,-1.869871,-1.824382,9.414001,6.041677,-2.417461,22.384995
196000,-1.944092,-1.821988,9.392453,6.637096,-2.295324,23.010948
200000,-2.003947,-1.917756,9.562442,7.812669,-1.974713,24.125452
204000,-2.090138,-1.831564,9.612720,8.820302,-1.104484,25.514765
208000,-2.013524,-1.824382,9.454702,9.705798,-0.631201,26.858276
212000,-1.975216,-1.769315,9.385271,10.240149,0.498570,28.201788
216000,-2.042254,-1.707066,9.174581,10.118012,0.727577,28.904078
220000,-2.015918,-1.675941,9.222465,10.163814,1.185592,29.988047
224000,-1.944092,-1.651999,9.246407,10.347020,1.307730,30.949881
228000,-1.970428,-1.606509,9.057265,10.728700,1.032921,31.850643
232000,-1.946486,-1.616086,9.011775,10.713432,0.987119,32.736137
236000,-1.936909,-1.644817,8.966286,10.637096,1.322997,33.713238
240000,-1.912967,-1.575385,8.959103,10.087478,1.704676,34.491863
244000,-1.903390,-1.537078,8.935161,9.629462,1.048188,35.178886
248000,-1.934515,-1.568202,8.851364,9.049310,0.437501,35.988049
252000,-1.912967,-1.553837,8.729259,9.110378,0.132157,36.537666
256000,-1.960851,-1.611298,8.789114,8.911905,0.437501,37.148354
260000,-1.996764,-1.637634,8.657434,8.347020,1.063455,38.125454
264000,-2.056619,-1.692701,8.508993,7.766867,1.261928,38.781940
268000,-2.145205,-1.731008,8.465898,7.064577,1.155058,39.392628
272000,-2.207454,-1.697489,8.434772,6.576027,0.269562,40.232323
276000,-2.353500,-1.731008,8.463503,5.690531,-1.364026,41.087284
280000,-2.260126,-1.798046,8.693346,5.507325,-2.112118,41.957512
284000,-2.329558,-1.862689,8.772355,5.766867,-2.356392,43.010948
288000,-2.418144,-1.855506,8.667010,5.950073,-3.089217,44.171253
292000,-2.568978,-1.836353,8.621520,5.721066,-3.516698,45.484230
296000,-2.545036,-1.762132,8.475474,5.293585,-4.707537,46.919346
300000,-2.523489,-1.707066,8.468291,4.392821,-5.867843,48.110184
304000,-2.463634,-1.738190,8.631097,3.827936,-7.150285,49.896446
308000,-2.394202,-1.647211,8.554482,3.522592,-7.104484,51.606369
312000,-2.372654,-1.549049,8.413225,2.514959,-6.967079,53.056751
316000,-2.245761,-1.570596,8.499416,1.522592,-6.890743,55.010948
320000,-2.114080,-1.414973,8.406042,-0.004125,-6.020514,56.598736
324000,-1.900996,-1.352724,8.489840,-1.485041,-4.631201,57.988049
328000,-1.776498,-1.328782,8.573636,-2.859087,-3.119751,59.484230
332000,-1.711854,-1.292869,8.571242,-3.775118,-2.112118,60.507130
336000,-1.563414,-1.268927,8.698134,-4.721683,-1.073950,61.774307
340000,-1.410185,-1.328782,8.911219,-5.240767,0.513837,62.339191
344000,-1.359907,-1.400608,8.997410,-5.408706,2.269562,63.255222
348000,-1.431733,-1.417367,9.088389,-5.393438,4.208493,63.911713
352000,-1.391031,-1.419762,9.246407,-5.149163,5.689409,64.400261
356000,-1.371878,-1.465251,9.282320,-4.294202,6.345898,64.537666
360000,-1.407791,-1.474828,9.337387,-2.996492,6.315363,64.568199
364000,-1.482011,-1.515530,9.265560,-1.698782,5.353531,64.232323
368000,-1.537078,-1.575385,9.358934,-0.248400,3.109257,64.049118
372000,-1.623269,-1.584962,9.397242,1.690531,0.666508,63.545296
376000,-1.742979,-1.570596,9.358934,3.873737,-2.463263,63.667435
380000,-1.884237,-1.604115,9.100361,5.598928,-6.402194,63.484230
384000,-2.080561,-1.604115,8.963891,7.629462,-10.188454,64.094917
388000,-2.142811,-1.568202,8.942344,9.110378,-13.883110,64.766670
392000,-2.006341,-1.561020,8.913613,9.598928,-17.119751,65.789574
396000,-1.987187,-1.570596,8.870518,9.858470,-18.478531,66.812477
400000,-1.951274,-1.549049,8.805874,10.179081,-19.516699,68.064384
404000,-1.814805,-1.520318,8.834604,10.179081,-20.203720,69.438431
408000,-1.704672,-1.498770,8.805874,9.889005,-19.211355,70.736137
412000,-1.443704,-1.498770,8.760384,9.598928,-17.104485,71.988045
416000,-1.412579,-1.441309,8.858546,9.415722,-14.356393,72.995682
420000,-1.283292,-1.441309,8.990228,9.797401,-10.860209,74.125450
424000,-1.316811,-1.414973,8.889671,10.056944,-5.012881,75.133087
428000,-1.333570,-1.417367,8.781932,9.156180,-2.493797,75.926979
432000,-1.403002,-1.367089,8.667010,8.805036,-1.135018,76.568199
436000,-1.465251,-1.403002,8.456321,8.133280,-0.814408,77.362091
440000,-1.659182,-1.436521,8.429984,7.965341,-0.677003,78.232323
444000,-1.690306,-1.441309,8.339005,8.270684,0.208493,79.270493
448000,-1.917756,-1.477222,8.087613,8.545493,0.864982,80.843010
452000,-2.090138,-1.529895,7.910442,7.843203,0.697043,82.308655
456000,-2.260126,-1.491588,7.642292,6.728699,-0.447995,83.942245
460000,-2.324770,-1.489193,7.630321,5.049310,-2.585400,85.850639
464000,-2.324770,-1.575385,7.668628,3.308852,-3.898377,87.972778
468000,-2.260126,-1.647211,7.716512,1.873737,-4.707537,90.079651
472000,-2.262521,-1.606509,7.790732,1.140913,-4.951812,92.430794
476000,-2.245761,-1.671153,7.946355,0.331753,-4.707537,94.430794
480000,-2.217031,-1.721431,8.001422,-0.263667,-4.066316,96.583466
484000,-2.114080,-1.731008,7.941567,-0.584278,-4.280056,98.583466
488000,-2.164358,-1.762132,8.145074,-1.118629,-4.066316,100.720871
492000,-2.252944,-1.742979,8.090008,-1.500308,-4.814407,103.041481
496000,-2.240973,-1.800440,8.238448,-1.759850,-6.463263,104.873543
500000,-2.264915,-1.872266,8.171411,-1.423972,-8.447996,106.934616
504000,-2.209848,-1.810017,8.061277,-0.859087,-10.432729,108.980415
508000,-2.183512,-1.814805,7.977480,-0.569010,-12.600668,110.751404
512000,-1.970428,-1.853112,7.948750,-0.141530,-14.249522,112.491867
516000,-1.819593,-1.944092,7.946355,-0.431606,-16.035782,114.094917
520000,-1.738190,-1.960851,7.900866,-0.401072,-17.715172,114.843010
524000,-1.695095,-1.977611,7.687782,-0.584278,-19.425095,115.988045
528000,-1.683124,-2.008735,7.603985,-1.347636,-21.012880,116.858276
532000,-1.764527,-2.037466,7.637504,-2.156797,-22.173187,118.201790
536000,-1.731008,-2.070984,7.534553,-3.408705,-23.150286,119.988045
540000,-1.735796,-2.085350,7.647080,-4.492675,-23.654102,121.682701
544000,-1.692701,-2.176329,7.457938,-5.439240,-22.890743,123.346825
548000,-1.601721,-2.190695,7.381324,-7.332370,-21.577766,125.117821
552000,-1.570596,-2.202666,7.144298,-9.561378,-20.096851,126.644539
556000,-1.673547,-2.269703,7.132327,-12.721683,-19.531965,128.278122
560000,-1.754950,-2.310405,7.343017,-15.607179,-19.516699,130.278122
564000,-1.707066,-2.394202,7.668628,-17.027025,-19.379293,132.430801
568000,-1.505953,-2.353500,7.987057,-17.698780,-17.928911,134.033844
572000,-1.505953,-2.351106,8.087613,-18.294201,-15.470897,136.033844
576000,-1.474828,-2.372654,8.159439,-19.057560,-16.310591,137.621628
580000,-1.216254,-2.420538,8.418014,-19.561377,-17.257156,139.056747
584000,-1.005565,-2.382231,8.674192,-19.225498,-15.791507,140.064377
588000,-0.849942,-2.286463,8.769960,-18.614811,-16.325857,140.598740
592000,-0.670376,-2.308010,8.851364,-17.744583,-16.463263,140.781937
596000,-0.440533,-2.291251,8.968679,-16.614811,-15.684637,140.919342
600000,-0.457293,-2.293645,9.236830,-15.332370,-16.661736,140.629272
604000,-0.275333,-2.276886,9.452309,-13.714049,-17.791508,140.369720
608000,-0.076614,-2.183512,9.545682,-12.248401,-17.928911,140.033844
612000,0.095768,-2.078167,9.725247,-10.859087,-17.760973,139.346832
616000,0.287304,-1.972822,9.691729,-9.164431,-17.455629,138.232315
620000,0.502782,-1.814805,9.746795,-7.836186,-16.722805,136.766678
624000,0.593762,-1.814805,9.674969,-6.462141,-15.684637,135.270493
628000,0.814029,-1.757344,9.727641,-5.347637,-14.478530,133.667435
632000,0.928950,-1.754950,9.713276,-3.851454,-13.272423,131.850647
636000,1.015141,-1.747767,9.859323,-2.355270,-12.173186,130.049118
640000,1.036689,-1.790863,9.598354,-1.301835,-10.585401,128.201782
644000,0.864307,-1.829170,9.481039,-0.706415,-9.211354,126.644539
648000,0.730232,-1.860295,9.385271,-0.401072,-8.325858,126.018585
652000,0.581791,-1.956063,9.435549,-0.828552,-8.280057,125.499496
656000,0.521936,-2.006341,9.411607,-0.889621,-8.799141,125.148354
660000,0.356736,-2.147599,9.414001,-1.194965,-8.188454,125.224686
664000,0.330400,-2.229002,9.406818,-0.813286,-7.776239,125.636902
668000,0.292093,-2.291251,9.478644,-0.462140,-7.608301,126.232323
672000,0.371101,-2.319981,9.643845,-0.263667,-4.982347,127.133087
676000,0.385466,-2.255338,9.651027,-0.385804,-3.165553,127.759033
680000,0.450110,-2.090138,9.701305,-1.210232,-1.959446,128.323929
684000,0.509965,-2.023100,9.751583,-1.210232,-0.829675,128.446060
688000,0.529119,-2.097321,9.904813,-0.828552,1.643608,128.720871
692000,0.433351,-2.090138,10.024523,0.118012,3.750478,129.331558
696000,0.445322,-2.061408,10.160992,0.911905,6.742845,130.262863
700000,0.577003,-2.047042,10.163386,1.415722,10.116890,131.163620
704000,0.617704,-2.015918,10.139444,1.690531,12.971851,132.003311
708000,0.766145,-2.023100,10.084377,2.026409,15.628340,132.507126
712000,0.895431,-1.987187,9.993398,2.118012,17.185593,132.766678
716000,0.991199,-2.001553,9.964667,1.583661,18.880249,132.980408
720000,0.926556,-1.982399,10.048465,1.965340,20.040554,133.285751
724000,1.254562,-1.891419,9.935937,1.308852,23.353531,133.423157
728000,1.546654,-1.879448,9.981427,0.530226,26.574905,133.178894
732000,1.606509,-1.917756,9.866506,1.125646,29.109257,132.537659
736000,1.668759,-1.841141,9.765948,1.583661,29.597805,131.377365
740000,1.829170,-1.889025,9.734824,2.163814,30.086355,130.293396
744000,1.924938,-1.754950,9.830592,3.018775,30.849714,128.812469
748000,1.972822,-1.721431,9.818622,4.240149,32.071087,127.743774
752000,1.845930,-1.623269,9.892841,4.789768,32.132156,126.339195
756000,1.867477,-1.517924,9.636662,6.056943,31.658875,124.980415
760000,1.872266,-1.338359,9.375694,6.545493,33.277195,124.033852
764000,1.833959,-1.209072,9.191340,6.896638,33.628342,123.087288
768000,1.896208,-1.175553,9.038112,7.812669,33.475670,121.667435
772000,2.032677,-1.120486,8.884883,9.461524,32.971851,120.598732
776000,2.087744,-1.082179,8.650250,10.942440,32.620705,118.491867
780000,1.991976,-1.029507,8.343793,11.369921,32.529102,116.171257
784000,1.733402,-1.036689,8.149862,11.171448,30.864981,114.217056
788000,1.577779,-1.072602,7.795521,11.369921,27.918417,112.537666
792000,1.381454,-1.072602,7.747637,11.843203,24.223761,111.072014
796000,1.355118,-1.022324,7.704541,12.209615,21.613073,109.697968
800000,1.218649,-0.964863,7.455544,11.934806,18.330629,108.568199
804000,1.278504,-0.945710,7.412448,11.553126,14.910783,107.362091
808000,1.218649,-0.945710,7.321469,10.789768,13.017653,106.384995
812000,1.086968,-0.885855,7.192182,9.904272,11.887882,106.003311
816000,1.024718,-0.924162,7.153875,8.713432,11.582539,106.247589
820000,1.233014,-0.893037,7.036559,7.430989,12.590172,106.400261
824000,1.302446,-0.746991,6.959944,5.965341,15.002386,106.598732
828000,1.398214,-0.732626,6.754043,4.301219,18.391699,106.537666
832000,1.489193,-0.691924,6.646304,2.606562,23.185593,106.293388
836000,1.527501,-0.663194,6.696582,0.743966,28.147425,106.461327
840000,1.470040,-0.691924,6.524199,-0.935423,32.788647,106.018585
844000,1.438915,-0.658405,6.208165,-2.782751,35.674141,105.759041
848000,1.304840,-0.713472,5.887342,-4.996491,37.216125,104.522400
852000,1.122881,-0.627281,5.714960,-8.034659,37.216125,104.247589
856000,1.003170,-0.696713,5.837064,-11.286569,37.796280,104.033852
860000,1.082179,-0.713472,5.861006,-13.698781,38.330631,103.804840
864000,1.151611,-0.608127,5.916072,-15.851453,38.391701,103.820107
868000,1.185130,-0.517148,5.772420,-17.576643,35.506203,102.507133
872000,1.280898,-0.471658,5.734113,-19.927788,33.170326,101.041481
876000,1.283292,-0.320823,5.940014,-22.645346,30.788645,99.499496
880000,1.414973,-0.313640,6.234501,-23.943056,28.177958,98.155983
884000,1.541866,-0.232238,6.392519,-24.477407,26.635973,96.018585
888000,1.687912,-0.150835,6.282385,-24.691147,25.490936,93.667435
892000,1.843535,0.055067,6.239290,-26.263666,24.620707,90.919342
896000,2.264915,0.141258,7.443573,-27.118628,40.239029,90.888809
900000,2.264915,0.119710,7.388506,-18.874353,20.040554,88.033852
904000,3.153164,0.555455,7.412448,-7.378171,-20.051048,83.911713
908000,4.951209,1.201889,7.654263,-3.469774,-50.295322,78.659805
912000,6.845023,1.302446,9.157822,1.247783,-74.386925,70.613998
916000,7.991845,1.565808,10.967838,7.766867,-91.364021,62.064384
920000,9.414001,1.908179,11.777079,11.675264,-104.386925,52.751408
924000,9.911995,2.003947,12.928689,17.171448,-104.951805,43.514767
928000,10.352529,2.070984,12.679692,20.942440,-118.310585,32.354462
932000,11.149797,1.972822,12.914324,24.835569,-113.089211,23.438429
936000,10.905589,1.900996,12.916718,25.797401,-98.585396,15.316291
940000,10.180145,1.850718,12.804191,25.934807,-87.302956,7.881176
944000,9.485827,1.826776,12.181698,24.041677,-75.043411,1.499497
948000,8.667010,1.635240,11.731588,21.721066,-58.890743,-3.050121
952000,7.826645,1.376666,11.391612,20.392822,-42.020515,-6.469968
956000,6.868965,1.264138,10.891224,18.560760,-24.234255,-9.065389
960000,5.729325,1.051055,10.488997,16.133280,-11.531965,-10.271496
964000,4.742914,0.905008,10.091560,12.805035,-3.440362,-11.233328
968000,4.084508,0.672771,9.816227,10.133280,3.277195,-11.508137
972000,3.433285,0.481235,9.382876,7.751600,13.414599,-11.279129
976000,2.516306,0.246603,8.865729,5.186715,19.903149,-11.370732
980000,1.738190,0.260968,8.379706,2.713432,24.452768,-10.347831
984000,0.998382,0.090980,7.922413,1.278317,27.460402,-9.141725
988000,0.459687,0.019154,7.515399,-0.446873,31.658875,-7.126457
992000,-0.023942,0.069432,7.129933,-2.706415,32.391701,-6.378365
996000,-0.294487,0.067038,6.924031,-5.118629,34.010021,-5.706609
1000000,-0.735020,-0.004788,6.813898,-6.904889,35.078720,-5.095922
1004000,-1.089362,0.050278,6.785168,-7.759851,36.223759,-4.561571
1008000,-1.350330,0.050278,6.739678,-8.172065,38.086357,-4.179892
1012000,-1.608904,0.093374,6.581660,-8.141530,38.971851,-4.714243
1016000,-1.975216,0.148441,6.545747,-8.630079,38.025288,-5.004319
1020000,-2.334347,0.136469,6.433220,-8.675881,33.872616,-5.844014
1024000,-2.777274,0.181959,6.464345,-8.828553,27.170324,-6.653174
1028000,-2.956839,0.098162,6.366182,-10.431606,21.918417,-6.668441
1032000,-3.299210,0.014365,6.615179,-11.683515,17.414600,-6.057755
1036000,-3.653552,-0.081403,6.988675,-12.141530,11.185592,-5.202793
1040000,-3.605668,-0.093374,7.256825,-13.149163,3.979486,-3.737144
1044000,-3.538630,-0.079009,7.582437,-13.423972,-0.829675,-1.462335
1048000,-3.239355,-0.040701,7.984663,-13.943057,-4.814407,0.262856
1052000,-2.894590,-0.090980,8.188169,-13.698781,-6.478529,1.911711
1056000,-2.470816,-0.093374,8.623915,-13.652980,-5.913644,3.407894
1060000,-2.166753,0.038307,9.021352,-13.256034,-4.585400,4.720871
1064000,-1.793257,0.011971,9.385271,-11.714049,-1.699904,5.865910
1068000,-1.417367,0.014365,9.629479,-10.172065,-1.196087,6.461329
1072000,-1.094150,0.021548,9.674969,-8.767485,0.620707,7.163620
1076000,-0.914585,0.076614,9.674969,-7.927790,0.926050,7.545299
1080000,-0.586579,0.191536,9.832987,-6.034659,2.101623,7.682703
1084000,-0.624887,0.248997,9.880871,-5.622446,0.529104,7.911711
1088000,-0.248997,0.237026,10.223241,-4.889622,0.742844,8.140718
1092000,-0.122104,0.260968,10.271125,-3.790385,-0.570133,7.759039
1096000,0.110133,0.311246,10.354922,-3.393438,-3.608301,7.743772
1100000,0.478840,0.296881,10.544065,-1.759850,-5.547232,6.766673
1104000,0.849942,0.442927,10.606314,-0.110996,-4.386927,5.926979
1108000,0.933739,0.617704,10.639832,1.400455,-5.028148,4.629269
1112000,1.144428,0.785298,10.460267,3.675264,-4.188453,3.056749
1116000,1.065420,0.835576,10.165780,5.522593,-2.539598,1.881177
1120000,0.893037,0.928950,9.809045,6.682898,-2.234255,0.491864
1124000,0.905008,0.964863,9.387665,7.400455,-2.081583,-1.080655
1128000,0.852336,0.890643,8.937555,7.675264,-2.478530,-2.668442
1132000,0.720655,0.873884,8.595184,7.308852,-3.119751,-4.607373
1136000,0.435745,0.883460,8.439561,6.560760,-4.173186,-6.042487
1140000,0.222661,0.737414,8.475474,5.766867,-5.150285,-7.279129
1144000,-0.146046,0.620098,8.226477,5.598928,-4.860209,-7.813479
1148000,-0.428562,0.512359,8.169016,4.056943,-6.096850,-7.676075
1152000,-0.450110,0.361524,8.099585,3.721066,-4.844942,-7.324930
1156000,-0.749385,0.323217,8.061277,2.453890,-4.738071,-6.897449
1160000,-0.883460,0.184354,8.154651,1.934806,-5.501431,-6.424167
1164000,-0.921768,0.045490,8.003817,1.278317,-5.730438,-5.813479
1168000,-1.046266,0.074220,8.003817,0.484424,-6.173186,-5.065388
1172000,-1.017536,0.071826,8.042124,0.118012,-4.890743,-4.256228
1176000,-1.180341,-0.016759,8.010999,-0.187331,-4.799140,-3.676075
1180000,-1.106121,-0.007183,8.145074,-0.065194,-3.776240,-2.668442
1184000,-1.115698,0.043096,8.073248,0.285951,-2.081583,-1.950884
1188000,-0.964863,0.081403,7.948750,0.011142,-1.715171,-1.340197
1192000,-0.907402,0.126893,7.783550,-0.767484,-1.730438,-1.660808
1196000,-0.924162,0.160412,7.946355,-1.423972,-2.371660,-1.859281
1200000,-0.936133,0.239420,7.972692,-2.034660,-3.654102,-1.553938
1204000,-0.964863,0.306458,8.142680,-2.736950,-4.661736,-1.462335
1208000,-0.974440,0.213084,8.269572,-3.500308,-5.501431,-1.050121
1212000,-0.916979,0.220267,8.422802,-3.729316,-5.974713,-0.851648
1216000,-0.720655,0.179565,8.623915,-3.530843,-6.280056,-0.286762
1220000,-0.723049,0.177171,8.813056,-3.256034,-6.707537,-0.073022
1224000,-0.553061,0.143652,8.944737,-2.309469,-5.959445,-0.195159
1228000,-0.445322,0.117316,9.241618,-2.462140,-6.051049,0.110184
1232000,-0.378284,0.155623,9.318233,-1.805652,-5.486163,0.171253
1236000,-0.318429,0.040701,9.291897,-1.256034,-4.783873,0.247589
1240000,-0.169988,-0.057461,9.325416,-0.385804,-4.005247,0.171253
1244000,-0.165200,-0.076614,9.301474,-0.049927,-3.791507,-0.393632
1248000,-0.107739,-0.138864,9.323022,0.118012,-5.043415,-0.821113
1252000,-0.071826,-0.181959,9.581595,1.003508,-4.585400,-1.859281
1256000,-0.177171,-0.213084,9.734824,1.812669,-5.257155,-2.408900
1260000,-0.289698,-0.181959,9.849746,2.835569,-5.822041,-2.744777
1264000,-0.313640,-0.148441,9.715671,4.148547,-5.089217,-2.592106
1268000,-0.440533,0.004788,9.524135,4.545493,-5.730438,-2.515770
1272000,-0.462081,0.208296,9.299079,5.003509,-6.463263,-2.866915
1276000,-0.481235,0.234632,9.002198,5.797401,-6.783873,-2.989052
1280000,-0.677559,0.392649,8.700529,5.858470,-8.203721,-2.821113
1284000,-0.639252,0.454898,8.508993,5.522593,-9.944179,-2.912716
1288000,-0.608127,0.562637,8.465898,5.140913,-10.753339,-2.897449
1292000,-0.653617,0.577003,8.382100,4.972974,-11.043416,-2.515770
1296000,-0.567426,0.684742,8.386889,4.224883,-10.829675,-2.454701
1300000,-0.469264,0.742203,8.245630,3.507325,-10.264790,-1.981419
1304000,-0.471658,0.663194,8.324639,2.728699,-9.287690,-2.027220
1308000,-0.538695,0.679953,8.161834,2.255417,-8.463263,-1.798213
1312000,-0.579397,0.612916,8.173804,1.446256,-8.173186,-1.538671
1316000,-0.596156,0.517148,8.202535,0.911905,-8.035782,-1.218060
1320000,-0.667982,0.433351,8.384495,0.545493,-7.898377,-0.653174
1324000,-0.691924,0.311246,8.439561,0.362287,-7.516697,0.064383
1328000,-0.550666,0.320823,8.410830,-0.156797,-6.997613,0.629268
1332000,-0.538695,0.177171,8.480263,-0.385804,-5.944179,1.453696
1336000,-0.457293,0.203507,8.762778,-0.614812,-4.432728,1.759039
1340000,-0.316035,0.203507,8.683769,-0.584278,-2.539598,2.507131
1344000,-0.167594,0.210690,8.628703,-0.477408,-0.646469,2.888810
1348000,-0.050278,0.263362,8.494628,-0.874354,0.452768,2.858276
1352000,-0.016759,0.225055,8.415619,-0.935423,1.185592,2.659803
1356000,-0.062249,0.270545,8.492233,-0.981224,1.429867,2.705604
1360000,-0.107739,0.289698,8.599973,-1.683514,1.918417,2.583467
1364000,-0.059855,0.282516,8.516175,-2.004125,2.223760,2.858276
1368000,0.016759,0.421380,8.580819,-2.630080,2.468035,2.507131
1372000,0.062249,0.414197,8.568848,-2.767484,3.445134,2.736139
1376000,0.117316,0.502782,8.501810,-3.775118,3.246661,2.339192
1380000,0.114922,0.469264,8.573636,-3.561377,4.574905,1.163620
1384000,0.026336,0.395043,8.585608,-4.202599,3.399333,0.888810
1388000,-0.059855,0.366313,8.621520,-4.156797,3.200860,0.064383
1392000,-0.181959,0.294487,8.853758,-4.309469,1.185592,-0.317297
1396000,-0.102951,0.191536,8.951921,-3.591912,0.513837,-1.080655
1400000,-0.172383,0.177171,9.124303,-2.904888,-0.890743,-1.859281
1404000,-0.332794,0.191536,9.282320,-1.744583,-0.631201,-2.561571
1408000,-0.617704,0.090980,9.136273,-0.752217,-2.218988,-3.034854
1412000,-0.711078,0.007183,9.215282,-0.309469,-3.196087,-3.156991
1416000,-0.821211,-0.040701,9.133880,0.087478,-3.776240,-3.004319
1420000,-0.986411,-0.045490,9.162610,0.438623,-5.318224,-2.607373
1424000,-0.988805,-0.105345,9.076419,0.728699,-6.310591,-1.920350
1428000,-0.871489,-0.019154,9.095572,1.095111,-6.829675,-1.492869
1432000,-0.794875,0.083797,9.085996,0.942440,-6.982347,-0.912716
1436000,-0.696713,0.129287,8.975863,1.232516,-6.432728,-0.576838
1440000,-0.600945,0.122104,8.930372,1.492058,-5.715171,-0.195159
1444000,-0.529119,0.184354,8.769960,1.721066,-4.799140,0.323925
1448000,-0.442927,0.196325,8.576031,1.339386,-4.188453,0.705604
1452000,-0.337582,0.277727,8.480263,0.942440,-3.928911,0.965146
1456000,-0.282516,0.282516,8.540117,0.438623,-4.173186,0.904078
1460000,-0.117316,0.316035,8.441956,-0.049927,-4.310591,1.087284
1464000,-0.004788,0.373495,8.429984,-0.675881,-3.928911,1.178887
1468000,0.181959,0.428562,8.566454,-1.225499,-3.165553,1.072016
1472000,0.287304,0.392649,8.678981,-1.362904,-1.440362,0.644536
1476000,0.265756,0.433351,8.611943,-1.591912,-0.081583,0.354459
1480000,0.347159,0.402226,8.657434,-1.103362,0.727577,0.018581
1484000,0.277727,0.335188,8.518570,-0.950690,0.635974,-0.622640
1488000,0.191536,0.241814,8.535329,-1.500308,0.971852,-0.729510
1492000,0.179565,0.222661,8.621520,-1.744583,1.002386,-1.431800
1496000,0.050278,0.184354,8.734048,-2.492675,1.536737,-1.172258
1500000,-0.004788,0.083797,8.829816,-1.759850,2.697043,-1.218060
1504000,0.035913,0.114922,8.774749,-1.485041,2.620707,-1.156991
1508000,0.047884,0.117316,8.839393,-1.256034,2.681776,-1.156991
1512000,-0.093374,0.165200,8.803479,-0.813286,3.246661,-1.523403
1516000,-0.093374,0.095768,8.765172,-0.889621,2.651241,-1.492869
1520000,-0.014365,0.117316,8.755595,-0.752217,2.788646,-1.676075
1524000,0.000000,0.067038,8.935161,-0.462140,3.338264,-2.073022
1528000,-0.110133,0.000000,8.791509,-0.278934,2.620707,-1.920350
1532000,-0.088585,0.067038,9.047688,0.591295,3.765745,-2.073022
1536000,-0.126893,0.155623,8.734048,0.637096,3.872615,-2.179892
1540000,-0.098162,0.184354,8.789114,0.789768,4.345898,-2.485235
1544000,-0.069432,0.201113,8.796297,0.698165,5.399333,-2.958518
1548000,-0.284910,0.280122,8.549694,0.347020,5.155058,-3.385999
1552000,-0.428562,0.366313,8.401254,-0.217866,4.483303,-3.706610
1556000,-0.593762,0.361524,8.322245,-1.164430,3.750478,-3.553938
1560000,-0.794875,0.359130,8.334216,-1.790385,2.406966,-3.355464
1564000,-0.878672,0.359130,8.322245,-2.355270,0.742844,-3.569205
1568000,-0.893037,0.311246,8.485051,-3.042293,-0.509064,-3.187526
1572000,-0.866701,0.258574,8.705317,-3.164430,-0.585400,-2.912716
1576000,-0.893037,0.248997,8.702923,-3.271301,-1.211354,-2.653174
1580000,-0.869095,0.193930,8.971074,-3.591912,-1.913644,-2.485235
1584000,-0.802058,0.158017,8.918402,-3.317102,-2.478530,-2.225693
1588000,-0.785298,0.055067,9.100361,-2.920156,-2.356392,-1.889816
1592000,-0.739808,-0.004788,8.956709,-2.553744,-2.906011,-1.279129
1596000,-0.679953,0.026336,8.942344,-2.248400,-2.997614,-0.821113
1600000,-0.572214,-0.047884,8.971074,-2.004125,-2.875476,-0.515770
1604000,-0.368707,-0.040701,8.920795,-1.622446,-2.860209,-0.439434
1608000,-0.361524,-0.031125,8.923190,-1.668247,-2.951812,-0.103556
1612000,-0.265756,-0.050278,8.937555,-1.759850,-2.417461,0.507131
1616000,-0.052672,-0.057461,8.985439,-1.485041,-1.715171,0.476597
1620000,0.057461,0.016759,8.920795,-1.591912,-0.951812,0.720871
1624000,0.141258,0.126893,8.710106,-1.652980,-0.157919,0.690337
1628000,0.387861,0.325611,8.492233,-2.553744,0.605440,-0.164625
1632000,0.399832,0.442927,8.755595,-3.210232,2.147424,-0.775312
1636000,0.284910,0.411803,8.894460,-2.416339,4.635974,-1.706609
1640000,-0.057461,0.452504,8.719683,-1.423972,4.651241,-2.393632
1644000,-0.237026,0.483629,8.650250,-0.798018,3.628341,-2.286762
1648000,-0.471658,0.524330,8.504205,-0.660614,2.620707,-2.240961
1652000,-0.617704,0.435745,8.449138,-0.767484,0.834447,-2.088289
1656000,-0.696713,0.507571,8.585608,-1.240766,-1.012881,-1.920350
1660000,-0.663194,0.409408,8.671799,-1.439240,-1.959446,-2.073022
1664000,-0.641646,0.342371,8.741230,-1.637713,-2.844942,-1.660808
1668000,-0.672771,0.318429,8.868123,-1.775118,-3.822041,-1.706609
1672000,-0.605733,0.232238,8.920795,-1.454507,-4.127385,-1.401266
1676000,-0.658405,0.181959,8.954314,-1.469774,-4.829675,-1.172258
1680000,-0.598550,0.100556,8.944737,-1.042293,-4.890743,-1.523403
1684000,-0.548272,0.062249,9.002198,-0.935423,-4.478529,-1.233327
1688000,-0.486023,-0.033519,8.927979,-0.645346,-4.264789,-1.309663
1692000,-0.459687,-0.083797,8.999804,-0.538476,-4.631201,-1.095922
1696000,-0.402226,-0.045490,9.026140,-0.569010,-4.509064,-0.851648
1700000,-0.351948,-0.095768,9.093178,-0.416339,-4.509064,-0.805846
1704000,-0.320823,-0.122104,9.042900,-0.309469,-3.806774,-0.256228
1708000,-0.215478,-0.011971,8.930372,-0.385804,-2.982346,-0.378365
1712000,-0.052672,0.038307,9.018958,-0.095728,-2.127385,-0.424167
1716000,-0.052672,0.088585,8.882488,0.041676,-0.982347,-0.271495
1720000,-0.074220,0.184354,8.889671,0.194348,-0.203721,-0.378365
1724000,-0.131681,0.282516,8.623915,0.072211,0.345898,-0.653174
1728000,-0.244209,0.407014,8.497022,0.026409,0.635974,-0.332564
1732000,-0.256180,0.418985,8.379706,-0.141530,0.010020,-0.378365
1736000,-0.328006,0.476446,8.327033,-0.324736,-0.646469,-0.256228
1740000,-0.363919,0.426168,8.240842,-0.889621,-1.012881,-0.439434
1744000,-0.347159,0.438139,8.396465,-1.576644,-1.211354,-0.531037
1748000,-0.335188,0.392649,8.475474,-2.248400,-2.112118,-0.561571
1752000,-0.383072,0.387861,8.470686,-2.355270,-2.417461,-0.653174
1756000,-0.359130,0.311246,8.669404,-2.645346,-2.356392,-0.576838
1760000,-0.361524,0.239420,8.801085,-2.614812,-2.554866,-0.760045
1764000,-0.332794,0.169988,8.734048,-2.843820,-2.570133,-1.050121
1768000,-0.328006,0.090980,8.722076,-2.813286,-3.226621,-1.309663
1772000,-0.335188,0.045490,8.796297,-2.309469,-2.600667,-1.370732
1776000,-0.423774,0.014365,8.834604,-2.110996,-3.898377,-1.569205
1780000,-0.337582,0.033519,8.872911,-2.599545,-4.722805,-1.630274
1784000,-0.363919,0.009577,8.963891,-2.645346,-5.028148,-1.615006
1788000,-0.304064,0.011971,9.004593,-2.156797,-5.135018,-1.263861
1792000,-0.272939,0.009577,8.973468,-1.988858,-4.967079,-1.584472
1796000,-0.292093,0.083797,8.973468,-1.485041,-4.081583,-1.126457
1800000,-0.210690,0.059855,8.911219,-1.164430,-3.501430,-1.324930
1804000,-0.248997,0.093374,8.954314,-0.446873,-3.669369,-1.645541
1808000,-0.280122,0.181959,8.947132,0.285951,-4.631201,-1.538671
1812000,-0.294487,0.181959,8.911219,0.530226,-4.600667,-1.202793
1816000,-0.349553,0.114922,8.786720,0.850837,-3.745705,-0.866915
1820000,-0.227449,0.153229,8.690952,0.957707,-3.608301,-0.698976
1824000,-0.229843,0.222661,8.657434,0.881371,-3.928911,-0.973785
1828000,-0.126893,0.203507,8.576031,0.652363,-3.913644,-1.172258
1832000,-0.143652,0.227449,8.669404,0.606562,-3.822041,-1.401266
1836000,-0.208296,0.213084,8.655039,0.805035,-4.295324,-1.492869
1840000,-0.296881,0.124498,8.760384,0.942440,-4.081583,-1.370732
1844000,-0.304064,0.160412,8.710106,0.301218,-3.913644,-1.370732
1848000,-0.232238,0.090980,8.817844,0.118012,-3.745705,-0.897449
1852000,-0.232238,-0.014365,8.868123,-0.049927,-3.455629,-0.500503
1856000,-0.210690,-0.002394,8.762778,-0.217866,-3.180820,-0.439434
1860000,-0.119710,0.002394,8.923190,0.270684,-2.829675,-0.027220
1864000,-0.138864,0.064643,8.944737,0.224882,-2.936545,0.049116
1868000,0.023942,0.079009,8.863335,1.064577,-1.776240,0.201787
1872000,0.057461,0.059855,8.829816,1.049310,-1.012881,0.369726
1876000,0.045490,0.047884,8.700529,1.140913,-0.249522,0.033849
1880000,0.160412,0.045490,8.781932,1.217249,0.391699,0.049116
1884000,0.141258,0.035913,8.712500,1.018775,0.910783,-0.042487
1888000,0.136469,0.181959,8.638280,0.850837,1.170325,-0.240961
1892000,0.174777,0.184354,8.516175,0.514959,1.674142,-0.302029
1896000,0.098162,0.301669,8.511387,0.087478,1.490936,-0.729510
1900000,0.081403,0.337582,8.556877,-0.324736,0.788646,-1.248594
1904000,-0.021548,0.304064,8.489840,-0.843820,0.697043,-1.340197
1908000,-0.150835,0.423774,8.439561,-1.271301,0.803913,-1.706609
1912000,-0.129287,0.397437,8.473080,-1.561377,1.231394,-1.599739
1916000,-0.237026,0.442927,8.499416,-2.217866,-0.295324,-1.782945
1920000,-0.232238,0.469264,8.604761,-2.660614,-0.218988,-2.011953
1924000,-0.272939,0.435745,8.774749,-2.340003,0.147424,-2.011953
1928000,-0.306458,0.450110,8.851364,-1.851454,0.147424,-2.668442
1932000,-0.459687,0.351948,8.887277,-1.790385,-0.249522,-2.210426
1936000,-0.521936,0.234632,8.995016,-1.714049,-0.371659,-2.408900
1940000,-0.660800,0.167594,8.971074,-1.011759,-0.341125,-1.782945
1944000,-0.670376,0.105345,8.973468,-1.057560,-1.593034,-1.080655
1948000,-0.569820,0.059855,9.045294,-0.996492,-1.837308,-1.034854
1952000,-0.464475,-0.067038,9.196129,-0.828552,-1.944179,-0.805846
1956000,-0.356736,-0.095768,9.184157,-0.141530,-1.928911,-0.576838
1960000,-0.361524,-0.095768,9.131485,0.377554,-2.035782,-0.408900
1964000,-0.268151,-0.215478,9.023746,1.308852,-1.272423,-0.103556
1968000,-0.191536,-0.181959,9.050082,1.492058,-1.089217,0.018581
1972000,-0.117316,-0.177171,8.911219,1.232516,-0.844942,0.018581
1976000,-0.043096,-0.155623,8.920795,1.125646,-1.104484,-0.179892
1980000,-0.136469,-0.146046,8.741230,1.293585,-1.058682,-0.378365
1984000,-0.134075,-0.131681,8.779537,1.308852,-1.104484,-0.210426
1988000,-0.112527,-0.057461,8.834604,1.385188,-0.738072,-0.011953
1992000,-0.138864,0.038307,8.793902,1.247783,-0.325858,0.094917
1996000,-0.124498,0.114922,8.832211,1.110379,0.223760,0.339192
