time_us,ax,ay,az,gx,gy,gz
0,0.220267,-0.802058,8.319851,-0.965957,-0.249522,-0.240961
4000,0.160412,-0.794875,8.346188,-1.622446,-0.997614,-0.393632
8000,0.112527,-0.778116,8.506598,-2.065194,-0.936545,-0.179892
12000,0.237026,-0.842759,8.588001,-2.370538,-0.631201,-0.271495
16000,0.244209,-0.802058,8.686164,-2.645346,0.162692,-0.469968
20000,0.287304,-0.864307,8.786720,-2.614812,0.773379,-0.561571
24000,0.272939,-0.847547,8.887277,-2.614812,2.254295,-0.485235
28000,0.241814,-0.933739,8.856153,-2.370538,3.307730,-0.576838
32000,0.201113,-0.907402,8.918402,-2.614812,4.055821,-0.592106
36000,0.131681,-0.974440,8.923190,-2.569010,4.437501,-0.698976
40000,0.069432,-0.962469,8.992621,-2.401072,5.063455,-0.347831
44000,-0.023942,-1.031901,8.959103,-1.988858,4.910783,-0.347831
48000,-0.069432,-1.012747,8.937555,-1.866720,4.437501,-0.134090
52000,0.035913,-1.000776,8.858546,-1.332370,3.322997,-0.103556
56000,-0.057461,-1.048660,8.683769,-0.660614,1.994753,-0.271495
60000,-0.148441,-1.017536,8.628703,-0.630080,0.315363,-0.134090
64000,-0.150835,-0.998382,8.604761,-0.523209,-1.531965,-0.332564
68000,-0.086191,-1.012747,8.597578,-0.843820,-3.333492,-0.683709
72000,-0.093374,-0.974440,8.686164,-0.385804,-4.554865,-0.882182
76000,-0.122104,-1.000776,8.643068,-0.034660,-5.272423,-1.050121
80000,-0.155623,-0.991199,8.468291,-0.217866,-5.318224,-1.111190
84000,-0.162806,-0.962469,8.561666,-0.736950,-4.478529,-1.141724
88000,-0.256180,-0.960075,8.422802,-1.729316,-3.593034,-0.989052
92000,-0.344765,-0.995988,8.528147,-2.798018,-3.073950,-0.897449
96000,-0.409408,-1.046266,8.566454,-3.881988,-2.127385,-0.531037
100000,-0.469264,-1.108515,8.736442,-4.645347,-1.226621,0.140719
104000,-0.476446,-1.180341,8.887277,-4.950690,-0.264789,0.720871
108000,-0.478840,-1.221043,9.188946,-4.752217,1.078722,1.499497
112000,-0.474052,-1.209072,9.224859,-4.645347,2.468035,1.942245
116000,-0.402226,-1.223437,9.294291,-4.370538,2.697043,2.415528
120000,-0.464475,-1.259350,9.378088,-3.866720,2.819180,2.446062
124000,-0.378284,-1.290475,9.548077,-3.485041,2.468035,2.797207
128000,-0.368707,-1.350330,9.581595,-2.492675,2.635974,3.163620
132000,-0.416591,-1.273715,9.619903,-1.271301,2.223760,3.438429
136000,-0.308852,-1.395820,9.572019,-0.172064,2.498570,3.957513
140000,-0.347159,-1.379060,9.495404,1.461524,3.353531,3.926979
144000,-0.402226,-1.319205,9.402030,2.545493,3.292463,4.446063
148000,-0.311246,-1.278504,9.193734,3.293585,3.124524,4.598734
152000,-0.246603,-1.216254,9.227253,3.782134,3.353531,4.751406
156000,-0.304064,-1.189918,8.973468,4.102745,3.613073,5.087284
160000,-0.205901,-1.101333,8.880095,3.843203,3.506203,5.117818
164000,-0.251391,-1.043872,8.791509,3.614195,3.552005,5.346826
168000,-0.220267,-1.017536,8.741230,3.064577,3.796279,5.331559
172000,-0.210690,-1.022324,8.638280,2.499691,3.796279,5.224689
176000,-0.193930,-1.005565,8.786720,2.087478,4.147425,5.148353
180000,-0.232238,-0.974440,8.810662,1.553127,4.132157,5.194154
184000,-0.260968,-1.094150,8.803479,1.308852,4.910783,5.438429
188000,-0.237026,-1.094150,8.920795,0.927172,5.628341,5.896444
192000,-0.270545,-1.108515,8.963891,0.514959,6.208493,6.033849
196000,-0.239420,-1.108515,8.987833,0.347020,7.170325,6.644536
200000,-0.229843,-1.177947,9.028535,0.438623,7.933684,6.644536
204000,-0.129287,-1.134852,8.932767,0.499691,8.773378,6.995681
208000,-0.215478,-1.173159,8.939949,0.133279,9.277195,6.919345
212000,-0.304064,-1.206678,8.992621,0.041676,9.475668,7.178887
216000,-0.375890,-1.235408,8.844181,-0.019392,8.742844,7.438429
220000,-0.430956,-1.292869,8.908825,-0.156797,7.719944,8.064383
224000,-0.519542,-1.340753,9.011775,-0.401072,6.391699,8.278123
228000,-0.644040,-1.328782,9.054871,-0.217866,5.552005,9.331558
232000,-0.495600,-1.328782,9.181764,-0.049927,5.246661,9.743772
236000,-0.512359,-1.328782,9.188946,0.255417,5.384066,10.094917
240000,-0.548272,-1.319205,9.208099,0.682898,5.170325,10.781940
244000,-0.598550,-1.328782,9.308656,1.171447,5.597806,11.392627
248000,-0.572214,-1.345541,9.184157,1.629462,7.338264,12.323924
252000,-0.577003,-1.170765,9.136273,1.812669,9.292462,13.407894
256000,-0.509965,-1.223437,9.038112,2.072211,11.155058,13.850642
260000,-0.495600,-1.235408,8.863335,1.934806,13.582539,14.781940
264000,-0.478840,-1.158794,8.827422,2.453890,14.971851,15.239955
268000,-0.509965,-1.137246,8.731653,2.469157,15.857347,15.759040
272000,-0.490811,-1.180341,8.681376,2.545493,16.208492,16.033850
276000,-0.746991,-1.185130,8.623915,2.163814,15.613073,16.308659
280000,-0.893037,-1.137246,8.568848,1.751600,14.956584,17.316292
284000,-0.933739,-1.189918,8.571242,1.583661,13.689409,18.079651
288000,-1.015141,-1.254562,8.432379,1.263050,12.590172,18.629269
292000,-1.015141,-1.266533,8.518570,1.171447,11.017653,19.499498
296000,-1.067814,-1.264138,8.429984,0.881371,9.048187,19.774307
300000,-1.120486,-1.340753,8.480263,0.316485,6.880249,20.415529
304000,-1.156399,-1.312023,8.614338,-0.278934,5.048188,21.026215
308000,-1.285686,-1.371878,8.848969,-0.294202,3.857348,21.682705
312000,-1.431733,-1.465251,8.882488,-0.278934,3.643608,22.690338
316000,-1.529895,-1.484405,8.985439,0.056943,3.445134,23.682705
320000,-1.651999,-1.479617,8.963891,0.514959,4.345898,25.056749
324000,-1.731008,-1.462857,8.896853,0.621829,5.002387,26.614002
328000,-1.778892,-1.429338,8.892065,0.316485,6.300097,28.369726
332000,-1.565808,-1.462857,8.899248,0.041676,8.742844,30.049116
336000,-1.728614,-1.364695,9.023746,-0.752217,9.353531,31.621635
340000,-1.620875,-1.309628,8.963891,-0.645346,10.193226,32.751408
344000,-1.565808,-1.288081,9.112331,-0.736950,13.826814,34.201790
348000,-1.618480,-1.393425,9.059659,-0.569010,15.460402,35.087284
352000,-1.656788,-1.410185,8.935161,-0.477408,16.727577,36.094917
356000,-1.675941,-1.323994,8.951921,-0.599545,17.796280,36.980415
360000,-1.786075,-1.417367,8.863335,-1.225499,17.887882,37.499496
364000,-1.956063,-1.489193,8.760384,-1.210232,16.574905,38.415527
368000,-1.970428,-1.465251,8.798691,-1.469774,15.093989,39.224689
372000,-2.042254,-1.520318,9.011775,-1.301835,14.025287,39.850643
376000,-2.106898,-1.544260,8.925584,-0.767484,12.345898,40.262856
380000,-2.336741,-1.551443,8.932767,-0.049927,9.796279,41.072018
384000,-2.506729,-1.596933,8.973468,0.545493,6.345898,41.926979
388000,-2.451663,-1.640028,9.390059,1.476791,5.887883,43.316292
392000,-2.437297,-1.651999,9.519346,2.789768,4.513837,44.278126
396000,-2.319981,-1.800440,9.636662,3.797401,2.681776,45.239956
400000,-2.291251,-1.759738,9.488221,5.034043,2.422234,45.972782
404000,-2.291251,-1.719037,9.739613,6.011142,3.292463,47.133087
408000,-2.138022,-1.721431,9.670180,6.759233,4.376432,47.560566
412000,-2.171541,-1.704672,9.643845,7.034043,5.887883,48.461330
416000,-2.300828,-1.721431,9.509769,7.079844,6.864982,49.072018
420000,-2.413355,-1.699883,9.342175,6.957707,7.735211,49.530033
424000,-2.432509,-1.841141,9.198523,6.301218,8.880248,50.507130
428000,-2.597709,-1.891419,9.172187,5.858470,10.177958,51.560566
432000,-2.774880,-1.903390,9.090784,5.629463,10.987119,52.614002
436000,-2.829947,-1.965640,9.279925,5.614195,12.223760,54.476597
440000,-2.935291,-1.917756,9.363723,5.950073,13.765745,55.621635
444000,-2.995146,-1.944092,9.502586,6.377554,13.918416,57.102551
448000,-3.019088,-1.862689,9.435549,6.957707,14.284829,58.568199
452000,-3.050213,-1.843535,9.445126,7.843203,15.658875,59.606369
456000,-3.107674,-1.814805,9.277532,8.621829,16.269562,61.163620
460000,-3.181894,-1.781286,9.093178,9.064577,17.490936,62.461330
464000,-3.308787,-1.790863,8.882488,9.644730,17.933683,63.530029
468000,-3.478775,-1.819593,8.645462,9.858470,16.758112,64.858276
472000,-3.557784,-1.807622,8.482656,10.041677,14.376431,65.789574
476000,-3.505111,-1.798046,8.305486,10.102745,12.498569,66.843010
480000,-3.725378,-1.843535,8.267179,9.369921,9.948951,68.369728
484000,-3.952827,-1.972822,8.171411,8.850837,5.750478,69.377357
488000,-4.034230,-2.099715,8.169016,8.347020,1.613073,71.102554
492000,-4.163517,-2.066196,8.159439,7.675264,-2.051049,72.919342
496000,-4.331111,-2.245761,8.243237,7.293585,-5.852575,75.255226
500000,-4.388572,-2.219425,8.362947,6.698165,-7.562499,78.125450
504000,-4.338294,-2.343924,8.410830,5.980608,-8.447996,80.980415
508000,-4.364630,-2.322376,8.288726,4.652363,-8.631202,83.881180
512000,-4.321534,-2.497152,8.329428,3.232516,-8.112118,87.377357
516000,-4.412514,-2.552219,8.401254,2.102745,-7.394560,90.980415
520000,-4.276044,-2.533065,8.501810,1.568394,-6.447995,94.613998
524000,-4.082114,-2.530671,8.422802,1.171447,-3.348759,98.110184
528000,-3.993528,-2.523489,8.264784,-0.233133,-1.974713,101.682701
532000,-3.766079,-2.504335,8.379706,-1.775118,-1.928911,104.736137
536000,-3.552995,-2.482787,8.872911,-1.775118,-1.165553,107.911713
540000,-3.165135,-2.530671,9.411607,-1.027026,1.536737,110.522400
544000,-2.952051,-2.377442,9.607931,0.209615,4.101623,112.232323
548000,-2.794033,-2.451663,9.634268,1.721066,7.002387,113.988045
552000,-2.604892,-2.439692,9.564836,2.805035,9.521470,114.965149
556000,-2.413355,-2.430115,9.540894,3.690531,9.994752,115.728508
560000,-2.272097,-2.413355,9.660604,4.835569,9.536737,115.850639
564000,-2.272097,-2.466028,9.641450,6.118012,9.506203,115.331558
568000,-2.262521,-2.454057,9.526528,7.217249,9.750478,115.468964
572000,-2.291251,-2.501941,9.265560,8.423356,9.628340,115.606369
576000,-2.387019,-2.547431,8.927979,9.156180,9.384066,115.896446
580000,-2.497152,-2.540248,8.698134,9.217249,7.445135,116.125450
584000,-2.516306,-2.552219,8.504205,8.972974,4.697043,116.552933
588000,-2.525883,-2.616863,8.315063,8.591294,2.071089,116.980415
592000,-2.561796,-2.636016,8.073248,7.919539,-0.753339,117.789574
596000,-2.576161,-2.683900,7.967903,7.034043,-3.593034,118.155983
600000,-2.604892,-2.679112,7.759608,5.614195,-6.677003,118.873543
604000,-2.578555,-2.736573,7.769185,4.530226,-9.241889,119.957512
608000,-2.590526,-2.729390,7.908048,3.736333,-10.753339,121.377357
612000,-2.442086,-2.559402,7.972692,2.377554,-11.272423,122.949883
616000,-2.410961,-2.597709,8.142680,1.324119,-10.951813,124.507133
620000,-2.240973,-2.530671,8.068460,0.408088,-10.096850,126.278122
624000,-2.202666,-2.516306,8.010999,0.163814,-8.020514,128.323929
628000,-2.020706,-2.430115,8.157045,-0.340003,-6.188453,129.865906
632000,-1.965640,-2.442086,8.044518,-1.103362,-5.333491,131.331558
636000,-1.745373,-2.401384,8.116343,-2.126262,-4.386927,132.751404
640000,-1.740585,-2.365471,8.080431,-3.072828,-3.745705,134.079651
644000,-1.697489,-2.370260,8.118738,-3.591912,-3.531965,135.423157
648000,-1.529895,-2.317587,7.934384,-3.347636,-4.310591,136.400269
652000,-1.204283,-2.331953,8.032547,-3.194965,-6.020514,136.491867
656000,-0.993594,-2.300828,8.238448,-3.011759,-7.928911,136.354462
660000,-0.852336,-2.296039,8.197746,-2.614812,-9.852576,135.697968
664000,-0.809240,-2.329558,8.202535,-1.866720,-12.875477,134.919342
668000,-0.641646,-2.327164,8.176199,-0.767484,-15.531965,134.018585
672000,-0.629675,-2.422932,8.324639,0.957707,-17.470896,133.255219
676000,-0.720655,-2.406173,8.169016,2.148547,-20.066317,132.690338
680000,-0.938527,-2.355895,7.943961,2.545493,-23.440363,132.430801
684000,-0.979228,-2.437297,7.896077,3.064577,-25.623568,132.827744
688000,-1.012747,-2.487576,7.608773,3.354653,-27.379293,133.636902
692000,-0.979228,-2.442086,7.419631,2.866104,-28.783875,134.125458
696000,-0.893037,-2.420538,7.271191,1.492058,-28.997614,134.934616
700000,-0.672771,-2.406173,7.158663,-0.156797,-28.982347,135.484238
704000,-0.548272,-2.262521,7.000646,-1.637713,-28.646469,135.942245
708000,-0.428562,-2.291251,7.067683,-3.515576,-28.585400,136.079651
712000,-0.205901,-2.334347,7.259220,-4.507942,-27.562500,136.033844
716000,-0.248997,-2.315193,7.467515,-5.225499,-25.486164,136.446060
720000,-0.167594,-2.398990,7.254431,-5.576645,-24.234255,136.644531
724000,-0.100556,-2.387019,7.237672,-5.805653,-23.470896,136.598740
728000,-0.090980,-2.358289,7.137115,-6.233133,-23.776239,136.446060
732000,-0.165200,-2.420538,7.208941,-6.675881,-24.234255,136.201782
736000,-0.308852,-2.420538,7.460332,-6.462141,-25.989981,136.461334
740000,-0.280122,-2.391808,7.699753,-5.485042,-27.287691,136.613998
744000,-0.107739,-2.377442,7.661446,-4.507942,-27.287691,136.873550
748000,-0.088585,-2.454057,7.438785,-3.729316,-27.180820,136.965149
752000,-0.086191,-2.391808,7.338228,-3.286568,-27.211355,136.598740
756000,-0.124498,-2.262521,7.201759,-3.591912,-27.760973,136.690338
760000,-0.016759,-2.209848,7.266402,-3.423972,-28.829676,136.507126
764000,0.119710,-2.231396,7.062895,-2.889621,-30.280056,136.079651
768000,0.210690,-2.185906,7.065289,-2.813286,-31.852575,135.392624
772000,0.210690,-2.106898,6.816292,-2.584278,-33.516697,134.583466
776000,0.213084,-2.070984,6.845023,-3.759850,-36.142651,134.003311
780000,0.217872,-2.087744,7.050924,-4.553743,-38.356392,133.743774
784000,0.227449,-2.140416,7.201759,-5.378171,-40.264790,133.804840
788000,0.316035,-2.154782,7.225701,-5.759851,-42.096851,133.789581
792000,0.399832,-2.097321,7.264008,-6.477407,-42.829674,133.820114
796000,0.581791,-2.078167,7.297527,-7.729317,-42.493797,134.018585
800000,0.720655,-2.099715,7.362170,-8.492675,-41.348759,134.369720
804000,0.945710,-2.051831,7.311892,-10.049927,-38.890743,134.934616
808000,0.972046,-1.951274,7.264008,-12.248401,-35.760971,135.331558
812000,1.125275,-1.922544,7.412448,-14.110995,-31.562500,136.064377
816000,1.321599,-1.932121,7.457938,-15.286569,-26.218988,136.888809
820000,1.570596,-1.874660,7.556100,-16.645346,-20.585400,137.117813
824000,1.819593,-1.651999,7.438785,-18.248400,-15.226622,137.133087
828000,1.927332,-1.520318,7.450756,-19.988857,-11.211354,137.010956
832000,2.116474,-1.467646,7.582437,-20.645346,-6.692270,136.308655
836000,2.262521,-1.371878,7.443573,-21.179697,-3.745705,134.934616
840000,2.262521,-1.316811,7.240066,-21.790384,-2.707537,133.102554
844000,2.109292,-1.316811,7.309498,-21.759850,-4.020514,131.041489
848000,1.960851,-1.443704,7.429208,-22.110994,-5.608301,129.194153
852000,1.860295,-1.486799,7.575254,-21.912521,-7.379293,128.094925
856000,1.659182,-1.618480,7.649475,-21.943056,-11.196087,127.270493
860000,1.503559,-1.642422,7.762002,-21.591911,-13.867843,126.934616
864000,1.338359,-1.623269,7.864953,-21.072826,-16.173185,127.804840
868000,1.623269,-1.635240,8.025364,-19.805651,-18.173187,128.079651
872000,2.042254,-1.510741,8.216900,-18.767483,-18.615934,128.186523
876000,2.612074,-1.340753,8.128315,-17.866720,-17.318224,126.873543
880000,3.026271,-1.261744,8.037335,-17.225498,-15.302958,124.491867
884000,3.220201,-1.079785,7.999028,-16.828552,-13.501431,121.865913
888000,3.181894,-1.101333,8.212111,-16.874353,-12.157920,118.949883
892000,3.047819,-1.206678,8.422802,-16.416338,-12.447996,116.629272
896000,2.964022,-1.244985,8.530540,-15.851453,-12.829675,114.781944
900000,2.930503,-1.280898,8.427590,-15.210233,-13.348759,112.949883
904000,2.746149,-1.240196,8.348581,-14.996491,-12.967080,111.453697
908000,2.564190,-1.300052,8.243237,-15.469775,-14.112118,110.491867
912000,2.437297,-1.273715,8.353370,-16.217865,-14.402194,110.293388
916000,2.480393,-1.216254,8.506598,-16.294201,-14.356393,110.186523
920000,2.712631,-1.213860,8.437167,-16.431606,-14.234255,109.926979
924000,3.105280,-1.055843,8.300697,-17.011759,-12.585401,109.301025
928000,3.402161,-0.988805,8.298303,-17.881987,-8.539598,108.415527
932000,3.627216,-0.909797,8.295909,-18.767483,-4.295324,107.102554
936000,3.646369,-0.873884,8.252813,-19.820919,0.040554,105.621635
940000,3.672705,-0.780510,8.221688,-21.332369,3.185592,103.881180
944000,3.734955,-0.701501,8.030152,-22.584276,6.055821,102.537666
948000,3.675100,-0.720655,8.066066,-23.225498,7.231394,100.613998
952000,3.598485,-0.794875,8.171411,-23.164431,6.880249,98.675072
956000,3.584120,-0.737414,8.209718,-23.164431,7.185593,97.377357
960000,3.519476,-0.785298,8.224083,-23.149162,5.261929,95.468964
964000,3.569755,-0.766145,8.348581,-23.423971,2.987119,94.186523
968000,3.687071,-0.746991,8.384495,-23.179697,0.803913,92.507133
972000,3.861847,-0.739808,8.305486,-23.133896,-0.722805,90.751404
976000,3.866636,-0.679953,8.238448,-23.210232,-2.615934,88.995682
980000,4.175488,-0.849942,8.623915,-22.217865,-4.783873,85.881180
984000,4.455609,-0.993594,9.083601,-17.775116,20.605440,87.102554
988000,2.782062,-0.684742,7.874529,-24.248400,-30.051048,80.583466
992000,4.280833,-0.785298,8.401254,-21.454506,-39.593033,77.942245
996000,3.938462,-0.725443,9.323022,-22.202599,-40.509064,75.621635
1000000,3.881001,-0.754174,9.042900,-24.309467,-46.844944,73.926979
1004000,4.639963,-0.814029,8.973468,-23.271299,-38.432728,73.362091
1008000,4.623203,-0.794875,9.138668,-22.614811,-37.226624,70.873543
1012000,4.783615,-0.749385,9.277532,-21.729315,-31.974712,69.881180
1016000,4.812346,-0.646434,9.311050,-22.721682,-23.470896,69.453697
1020000,4.783615,-0.608127,9.397242,-20.965956,-18.188454,66.858276
1024000,4.869806,-0.433351,9.720459,-21.744583,-16.753340,65.759041
1028000,4.812346,-0.395043,9.500193,-21.637712,-15.730438,63.362095
1032000,4.807557,-0.459687,9.636662,-21.607178,-19.333492,60.690338
1036000,4.797980,-0.421380,9.991004,-20.080460,-18.524332,58.629269
1040000,5.051765,-0.411803,10.177752,-18.034658,-15.501431,56.064384
1044000,5.104438,-0.330400,10.426748,-17.240767,-8.096850,54.033848
1048000,5.046977,-0.232238,10.220847,-16.813284,-9.867843,50.491863
1052000,5.049371,-0.229843,9.988609,-17.088095,-13.486164,46.751408
1056000,4.845864,-0.296881,10.180145,-16.859087,-16.280056,42.949879
1060000,4.618415,-0.359130,10.347740,-15.622445,-16.417461,40.537666
1064000,4.675876,-0.457293,10.737994,-12.675881,-11.913645,38.354462
1068000,4.572925,-0.543484,10.781090,-12.431607,-14.157920,35.804840
1072000,4.534618,-0.493206,10.644621,-12.233132,-13.043416,34.186520
1076000,4.589684,-0.536301,10.685322,-10.614813,-7.593033,32.583466
1080000,4.460398,-0.555455,10.673351,-8.294202,-3.089217,30.614002
1084000,4.232949,-0.409408,10.692505,-5.943057,-0.829675,28.262857
1088000,4.204218,-0.368707,10.527305,-4.645347,0.330631,26.797209
1092000,4.010288,-0.392649,10.594342,-4.935423,-1.348759,24.797209
1096000,4.149151,-0.361524,10.493786,-3.775118,-2.631201,22.552933
1100000,3.912126,-0.318429,10.230424,-5.408706,-3.028148,20.965147
1104000,3.778050,-0.284910,10.120291,-4.538477,-5.425095,18.522398
1108000,3.651158,-0.387861,10.113108,-3.851454,-4.295324,16.949881
1112000,3.363853,-0.392649,10.177752,-3.469774,-4.310591,15.530032
1116000,3.270479,-0.423774,9.967062,-2.507942,-3.776240,14.537665
1120000,3.043030,-0.359130,9.916783,-2.813286,-8.768606,13.178886
1124000,2.937685,-0.397437,9.631873,-2.309469,-12.783874,11.560566
1128000,2.956839,-0.500388,9.414001,-1.836186,-13.241889,10.323924
1132000,2.932897,-0.464475,9.181764,-2.736950,-14.447996,8.446062
1136000,2.719813,-0.445322,9.203311,-3.714049,-16.692270,6.614001
1140000,2.619257,-0.581791,9.320627,-3.423972,-17.806774,5.117818
1144000,2.233790,-0.670376,9.583989,-3.668247,-21.928911,3.881177
1148000,2.063802,-0.746991,10.017340,-3.118629,-24.051048,3.209421
1152000,1.953669,-0.792481,10.304645,-1.836186,-24.447996,2.781940
1156000,1.960851,-0.847547,10.455479,-0.233133,-24.386927,2.446062
1160000,1.975216,-0.785298,10.615891,1.049310,-23.012880,2.491864
1164000,1.886631,-0.833182,10.649409,3.034043,-20.432728,2.232322
1168000,1.953669,-0.804452,10.551247,5.064577,-16.005247,2.522398
1172000,1.905785,-0.751779,10.374076,6.408089,-8.386927,2.965146
1176000,1.692701,-0.687136,10.055647,6.148546,-4.921278,3.392627
1180000,1.723825,-0.612916,9.698911,8.805036,-3.043415,3.133085
1184000,1.726219,-0.569820,9.315839,9.354653,1.735211,3.560566
1188000,1.551443,-0.483629,8.650250,7.995874,4.559639,3.667437
1192000,1.501164,-0.442927,8.422802,8.423356,6.742845,2.629268
1196000,1.295263,-0.380678,8.188169,6.774501,6.361165,2.384994
1200000,1.455675,-0.423774,8.032547,6.667630,11.567271,2.827742
1204000,1.326388,-0.375890,7.963115,5.263051,12.361164,2.873543
1208000,1.017536,-0.308852,7.879318,5.598928,8.391699,1.163620
1212000,1.335965,-0.181959,7.647080,3.644730,6.468035,1.285757
1216000,1.113304,-0.201113,7.522582,3.064577,11.475668,0.904078
1220000,0.852336,-0.179565,7.445967,2.072211,7.765746,-0.637907
1224000,0.782904,-0.169988,7.405266,1.110379,0.452768,-2.027220
1228000,0.830788,-0.229843,7.532158,-0.401072,1.704676,-2.332564
1232000,0.514753,-0.270545,7.539341,-1.149163,3.032921,-2.363098
1236000,0.335188,-0.418985,7.544129,-1.698782,0.345898,-2.790579
1240000,0.294487,-0.435745,7.704541,-1.881988,0.559638,-2.469968
1244000,0.225055,-0.505177,7.891289,-2.446873,1.032921,-2.210426
1248000,0.124498,-0.533907,7.965509,-3.088094,0.300096,-2.057755
1252000,0.162806,-0.660800,8.286332,-2.401072,0.513837,-1.706609
1256000,-0.023942,-0.708684,8.370130,-2.156797,-0.325858,-1.248594
1260000,-0.023942,-0.845153,8.571242,-1.118629,-1.089217,-0.851648
1264000,-0.047884,-0.878672,8.566454,0.316485,-0.356392,-0.454701
1268000,-0.395043,-0.988805,8.425196,0.347020,-1.791507,0.507131
1272000,-0.411803,-1.094150,8.566454,0.514959,-2.997614,1.652169
1276000,-0.361524,-1.106121,8.458714,1.705798,-3.440362,2.461329
1280000,-0.289698,-1.149217,8.389283,2.591295,-3.638835,2.812474
1284000,-0.270545,-1.154005,8.135497,2.347020,-5.211354,3.560566
1288000,-0.241814,-1.118092,8.094796,2.438623,-5.974713,4.140719
1292000,-0.134075,-1.070208,8.269572,2.270684,-5.760972,4.873543
1296000,0.076614,-0.974440,8.097190,1.812669,-3.913644,5.270490
1300000,0.110133,-0.962469,8.391677,1.690531,-1.455629,5.988047
1304000,0.246603,-0.876278,8.097190,1.522592,-0.356392,6.171253
1308000,0.294487,-0.792481,7.996634,1.156180,0.697043,6.110185
1312000,0.272939,-0.811634,8.025364,0.224882,1.399333,6.155986
1316000,0.186748,-0.785298,8.097190,0.056943,1.964218,6.308658
1320000,0.237026,-0.787692,8.255207,-0.034660,1.887883,6.446063
1324000,0.277727,-0.842759,8.324639,-0.340003,2.437501,6.476597
1328000,0.222661,-0.763750,8.336611,-0.553744,2.254295,6.705605
1332000,0.332794,-0.720655,8.576031,-0.996492,2.712310,7.316291
1336000,0.330400,-0.799663,8.607155,-0.080461,3.399333,7.407895
1340000,0.553061,-0.773327,8.468291,-0.813286,2.834447,7.743772
1344000,0.478840,-0.742203,8.590396,-0.660614,2.697043,7.865910
1348000,0.596156,-0.627281,8.537724,-0.996492,0.910783,7.988047
1352000,0.866701,-0.684742,8.676587,-0.278934,2.116890,7.697971
1356000,0.809240,-0.648829,8.540117,-1.301835,4.330631,8.155986
1360000,0.804452,-0.696713,8.611943,-1.103362,3.002386,7.606368
1364000,0.864307,-0.701501,8.635885,-2.416339,1.277195,7.759039
1368000,0.821211,-0.739808,8.887277,-1.072828,3.032921,8.171253
1372000,1.065420,-0.770933,9.165004,-0.691148,6.513837,8.354459
1376000,0.866701,-0.730232,8.801085,-0.767484,-0.936545,7.636902
1380000,1.173159,-0.663194,8.997410,-0.431606,0.468035,7.774307
1384000,1.223437,-0.691924,9.153033,-0.782751,4.300097,8.079650
1388000,1.127669,-0.687136,9.188946,-0.492675,5.353531,8.217054
1392000,1.151611,-0.744597,9.272743,0.606562,3.155058,8.171253
1396000,1.300052,-0.679953,9.205706,0.927172,4.895516,7.942246
1400000,1.201889,-0.713472,9.006987,1.125646,3.842081,7.591100
1404000,1.482011,-0.572214,8.990228,1.415722,2.254295,6.705605
1408000,1.520318,-0.567426,9.136273,1.675264,2.895516,6.125452
1412000,1.288081,-0.536301,9.124303,1.675264,2.071089,5.545299
1416000,1.223437,-0.502782,8.896853,1.568394,-2.020514,4.384994
1420000,1.323994,-0.440533,9.076419,1.049310,-1.913644,3.957513
1424000,1.187524,-0.435745,9.011775,1.461524,1.582539,3.896444
1428000,1.175553,-0.438139,8.853758,1.507325,1.857348,3.545299
1432000,1.216254,-0.416591,8.868123,0.667630,0.315363,3.499497
1436000,1.268927,-0.423774,8.913613,0.163814,1.429867,3.194154
1440000,1.302446,-0.397437,8.829816,-0.156797,0.086356,2.400261
1444000,1.237802,-0.375890,8.774749,-1.194965,0.193226,1.667436
1448000,1.371878,-0.490811,8.997410,-0.706415,0.742844,0.904078
1452000,1.254562,-0.454898,9.167398,-1.256034,0.452768,0.369726
1456000,1.151611,-0.598550,9.184157,-0.309469,-1.669369,-0.546304
1460000,1.242591,-0.632069,9.437943,1.278317,2.498570,-0.637907
1464000,0.912191,-0.660800,9.488221,0.560760,2.254295,-0.485235
1468000,0.859518,-0.632069,9.287108,0.667630,-1.302957,-1.080655
1472000,0.924162,-0.651223,9.244013,0.835569,-2.524331,-1.218060
1476000,0.885855,-0.715866,9.112331,0.789768,-2.249522,-1.324930
1480000,0.792481,-0.689530,8.916007,0.820302,-2.890743,-1.095922
1484000,0.744597,-0.787692,8.916007,0.881371,-3.241888,-1.156991
1488000,0.849942,-0.720655,8.781932,0.988241,-3.562499,-0.973785
1492000,0.816423,-0.751779,8.916007,0.774501,-4.249522,-0.958518
1496000,0.957681,-0.660800,8.980651,1.186714,-4.799140,-1.370732
1500000,1.060631,-0.622492,8.973468,1.721066,-4.249522,-1.599739
1504000,1.043872,-0.603339,8.750807,2.133279,-4.020514,-2.134090
1508000,0.864307,-0.603339,8.662222,2.560760,-4.371659,-2.683709
1512000,0.699107,-0.636858,8.556877,2.637096,-5.028148,-2.973785
1516000,0.644040,-0.687136,8.607155,2.576027,-4.493797,-2.531037
1520000,0.500388,-0.720655,8.485051,2.606562,-4.463263,-2.302029
1524000,0.512359,-0.742203,8.391677,2.285951,-3.959446,-1.813480
1528000,0.588974,-0.735020,8.298303,1.629462,-3.791507,-1.523403
1532000,0.579397,-0.802058,8.480263,0.972974,-2.906011,-1.401266
1536000,0.541090,-0.773327,8.643068,0.621829,-2.157919,-1.095922
1540000,0.514753,-0.746991,8.609550,0.453890,-1.791507,-1.034854
1544000,0.428562,-0.792481,8.805874,0.423356,-0.692270,-0.515770
1548000,0.347159,-0.802058,8.767567,0.743966,0.391699,-0.073022
1552000,0.342371,-0.742203,8.731653,0.423356,1.170325,0.629268
1556000,0.423774,-0.727837,8.860941,0.560760,2.147424,1.301024
1560000,0.478840,-0.780510,8.904037,1.034043,1.979486,1.865910
1564000,0.553061,-0.622492,8.801085,1.186714,1.414600,1.667436
1568000,0.660800,-0.581791,8.808268,1.553127,1.506203,2.003314
1572000,0.775721,-0.641646,8.789114,1.873737,1.460402,1.652169
1576000,0.687136,-0.660800,8.674192,2.331753,1.017653,1.285757
1580000,0.756568,-0.670376,8.671799,2.301218,0.651241,1.453696
1584000,0.809240,-0.615310,8.683769,2.209615,1.063455,1.392627
1588000,0.754174,-0.593762,8.657434,1.858470,1.460402,1.545299
1592000,0.768539,-0.529119,8.760384,1.766867,1.918417,1.392627
1596000,0.905008,-0.414197,8.712500,1.675264,2.315363,1.438429
1600000,0.902614,-0.416591,8.674192,1.400455,2.742844,1.453696
1604000,0.940921,-0.397437,8.480263,1.369921,3.490936,0.858276
1608000,1.019930,-0.423774,8.576031,0.850837,3.811547,0.247589
1612000,0.936133,-0.471658,8.623915,0.820302,3.842081,-0.118823
1616000,0.885855,-0.459687,8.719683,0.835569,3.322997,-0.592106
1620000,0.833182,-0.507571,8.710106,1.400455,2.880249,-0.805846
1624000,0.780510,-0.450110,8.690952,1.705798,2.177959,-1.492869
1628000,0.766145,-0.500388,8.789114,1.537859,1.857348,-1.721877
1632000,0.598550,-0.557849,8.755595,1.217249,1.796279,-1.676075
1636000,0.557849,-0.656011,8.693346,1.140913,1.322997,-1.599739
1640000,0.557849,-0.660800,8.966286,0.988241,1.246661,-1.492869
1644000,0.512359,-0.667982,8.923190,0.682898,1.368798,-0.943251
1648000,0.507571,-0.646434,9.069236,0.759233,0.956585,-0.622640
1652000,0.567426,-0.646434,8.956709,1.064577,0.666508,-0.393632
1656000,0.483629,-0.641646,8.844181,1.247783,-0.615934,-0.286762
1660000,0.593762,-0.670376,8.827422,1.797401,2.315363,0.171253
1664000,0.493206,-0.687136,8.724471,1.385188,1.338264,0.568200
1668000,0.390255,-0.679953,8.647857,1.232516,0.727577,0.843009
1672000,0.430956,-0.687136,8.810662,1.171447,-2.356392,0.552933
1676000,0.620098,-0.694318,8.875306,1.339386,-0.875476,1.194154
1680000,0.656011,-0.718261,8.858546,1.446256,-0.096850,1.392627
1684000,0.758962,-0.679953,8.789114,1.721066,-1.058682,1.377360
1688000,0.873884,-0.694318,8.901642,1.827936,-0.234255,1.072016
1692000,0.924162,-0.830788,9.090784,1.797401,0.666508,1.117818
1696000,0.888249,-0.794875,8.971074,2.591295,0.712310,1.010948
1700000,0.902614,-0.761356,8.971074,2.881371,0.223760,1.072016
1704000,0.830788,-0.744597,8.748413,3.201982,0.635974,0.827742
1708000,0.833182,-0.687136,8.738836,3.339386,0.880249,0.965146
1712000,0.866701,-0.588974,8.714894,3.690531,0.483302,0.904078
1716000,0.912191,-0.548272,8.700529,3.950073,0.849715,0.995681
1720000,0.981623,-0.512359,8.513782,4.118012,1.277195,0.995681
1724000,0.974440,-0.316035,8.489840,3.873737,2.376432,0.812474
1728000,0.986411,-0.313640,8.370130,3.659997,3.964219,0.461329
1732000,1.031901,-0.308852,8.233660,3.049310,5.216127,-0.149358
1736000,0.933739,-0.359130,8.305486,2.621829,6.544371,-0.469968
1740000,0.775721,-0.363919,8.300697,2.270684,7.429867,-0.607373
1744000,0.658405,-0.438139,8.281544,1.583661,7.322997,-0.851648
1748000,0.426168,-0.457293,8.233660,0.163814,5.384066,-0.500503
1752000,0.299275,-0.416591,8.161834,-1.866720,-1.302957,-0.439434
1756000,0.746991,-0.569820,8.561666,0.163814,-1.822041,-0.851648
1760000,0.706290,-0.581791,9.023746,-0.538476,3.017654,0.125452
1764000,0.572214,-0.586579,8.971074,0.148546,3.887883,0.171253
1768000,0.529119,-0.596156,8.781932,-0.599545,1.445134,0.033849
1772000,0.675165,-0.610521,8.786720,0.209615,0.254295,-0.210426
1776000,0.651223,-0.691924,9.071630,0.285951,2.269562,-0.042487
1780000,0.421380,-0.725443,8.973468,0.087478,2.345898,0.094917
1784000,0.359130,-0.727837,8.810662,-0.156797,-1.623568,0.522398
1788000,0.538695,-0.696713,8.963891,0.576027,-2.325858,0.934612
1792000,0.696713,-0.739808,9.090784,0.560760,0.437501,1.270490
1796000,0.746991,-0.725443,9.054871,1.201982,2.956585,1.514765
1800000,0.780510,-0.658405,8.937555,1.018775,3.781013,1.484230
1804000,0.775721,-0.644040,8.789114,1.308852,1.918417,1.087284
1808000,0.811634,-0.596156,8.916007,0.682898,2.452768,0.934612
1812000,0.749385,-0.675165,8.896853,0.988241,1.399333,0.308658
1816000,0.878672,-0.679953,8.935161,1.705798,2.223760,0.598734
1820000,0.648829,-0.586579,9.033323,2.224883,1.887883,0.430795
1824000,0.696713,-0.603339,8.846576,2.698165,1.536737,0.247589
1828000,0.684742,-0.622492,8.892065,2.530226,1.735211,0.217055
1832000,0.660800,-0.632069,8.896853,2.530226,2.086356,0.018581
1836000,0.622492,-0.548272,8.997410,2.881371,0.697043,-0.195159
1840000,0.617704,-0.565032,8.877700,2.911905,-0.280056,-0.011953
1844000,0.670376,-0.567426,8.839393,2.728699,0.010020,-0.302029
1848000,0.687136,-0.557849,8.882488,2.438623,0.208493,-0.011953
1852000,0.732626,-0.545878,8.856153,2.087478,0.055821,-0.088289
1856000,0.723049,-0.565032,8.839393,1.934806,0.254295,0.201787
1860000,0.739808,-0.526724,8.683769,1.400455,0.025287,0.247589
1864000,0.826000,-0.414197,8.688558,1.201982,0.055821,0.033849
1868000,0.883460,-0.426168,8.719683,1.125646,0.147424,-0.286762
1872000,0.902614,-0.395043,8.700529,1.140913,0.513837,-0.485235
1876000,0.909797,-0.452504,8.705317,0.942440,0.223760,-0.836380
1880000,0.837971,-0.409408,8.896853,1.186714,0.269562,-0.943251
1884000,0.814029,-0.450110,8.717288,1.507325,0.529104,-0.989052
1888000,0.802058,-0.328006,8.777143,1.278317,0.941318,-0.866915
1892000,0.778116,-0.332794,8.729259,0.972974,1.200860,-0.836380
1896000,0.852336,-0.316035,8.695741,0.743966,1.735211,-0.912716
1900000,0.828394,-0.378284,8.535329,0.820302,2.177959,-1.141724
1904000,0.766145,-0.356736,8.389283,0.545493,2.513837,-1.141724
1908000,0.799663,-0.411803,8.379706,0.148546,3.139791,-1.355464
1912000,0.701501,-0.459687,8.413225,-0.019392,3.460402,-1.385999
1916000,0.632069,-0.509965,8.597578,-0.294202,2.788646,-1.615006
1920000,0.507571,-0.557849,8.736442,-0.309469,1.597806,-1.569205
1924000,0.421380,-0.610521,8.779537,-0.431606,-0.509064,-1.477602
1928000,0.289698,-0.612916,8.755595,-1.820919,-4.188453,-1.263861
1932000,0.512359,-0.713472,8.868123,-0.584278,-4.936545,-1.569205
1936000,0.603339,-0.711078,9.129091,0.682898,-1.104484,-1.202793
1940000,0.407014,-0.749385,9.090784,0.774501,0.605440,-0.760045
1944000,0.368707,-0.725443,8.894460,0.927172,0.086356,-0.195159
1948000,0.289698,-0.653617,8.889671,1.354653,-1.654102,-0.332564
1952000,0.380678,-0.627281,8.906430,1.690531,-2.096850,-0.011953
1956000,0.399832,-0.577003,8.896853,1.522592,-1.196087,0.293391
1960000,0.426168,-0.603339,8.829816,1.385188,-0.631201,0.430795
1964000,0.521936,-0.517148,8.643068,1.736333,-0.753339,0.781940
1968000,0.591368,-0.495600,8.602366,1.461524,-0.493797,0.400261
1972000,0.577003,-0.466869,8.528147,0.866104,-0.661736,0.461329
1976000,0.579397,-0.445322,8.640674,0.484424,-0.554866,0.323925
1980000,0.615310,-0.426168,8.626308,-0.065194,-0.234255,0.400261
1984000,0.512359,-0.488417,8.724471,-0.324736,-0.218988,0.446062
1988000,0.574608,-0.548272,8.671799,-0.431606,-0.280056,0.644536
1992000,0.656011,-0.541090,8.734048,-0.569010,-0.249522,0.675070
1996000,0.679953,-0.565032,8.760384,-0.721682,0.101623,1.010948
