time_us,ax,ay,az,gx,gy,gz
0,-0.857124,-0.852336,8.599973,-0.904888,-0.478530,-0.653174
4000,-0.943315,-0.893037,8.513782,-0.813286,-0.783873,-0.592106
8000,-0.864307,-0.847547,8.628703,-1.103362,-1.455629,-0.500503
12000,-0.914585,-0.878672,8.609550,-1.118629,-1.119751,-0.744777
16000,-0.830788,-0.842759,8.583213,-1.072828,-0.722805,-0.546304
20000,-0.826000,-0.823605,8.571242,-0.706415,-0.432728,-0.912716
24000,-0.890643,-0.926556,8.542512,-0.446873,-0.539598,-1.141724
28000,-0.804452,-0.964863,8.504205,0.576027,0.208493,-1.431800
32000,-0.981623,-0.849942,8.530540,0.392821,0.712310,-1.676075
36000,-1.084573,-0.881066,8.520964,-0.156797,0.468035,-1.950884
40000,-1.130063,-0.964863,8.700529,-0.141530,0.513837,-1.660808
44000,-1.151611,-0.952892,8.887277,0.041676,0.284829,-1.279129
48000,-1.096544,-0.924162,8.822633,0.896638,-0.218988,-1.141724
52000,-1.019930,-0.957681,8.882488,1.522592,-0.264789,-0.805846
56000,-1.015141,-0.991199,8.836999,1.858470,0.758111,-0.500503
60000,-0.964863,-0.984017,8.796297,1.812669,2.116890,-0.103556
64000,-0.940921,-0.940921,8.719683,1.705798,3.719944,0.583467
68000,-0.988805,-0.957681,8.762778,1.797401,5.261929,1.072016
72000,-1.113304,-0.926556,8.805874,1.751600,5.994753,1.270490
76000,-1.115698,-0.902614,8.743625,1.705798,5.277195,1.499497
80000,-1.122881,-0.948104,8.772355,1.415722,4.071089,1.606368
84000,-1.091756,-0.861913,8.647857,1.446256,2.666508,1.484230
88000,-1.137246,-0.816423,8.626308,1.476791,1.139791,1.209421
92000,-1.055843,-0.749385,8.611943,1.522592,-0.005247,1.209421
96000,-0.928950,-0.785298,8.477868,1.675264,-1.089217,0.873543
100000,-0.907402,-0.679953,8.578424,1.904272,-1.791507,0.278123
104000,-0.988805,-0.761356,8.604761,2.148547,-2.768606,-0.118823
108000,-0.969652,-0.739808,8.585608,2.331753,-3.226621,-0.790579
112000,-1.036689,-0.742203,8.614338,2.240149,-3.974713,-0.927984
116000,-1.017536,-0.802058,8.611943,2.316485,-4.218988,-1.065388
120000,-1.122881,-0.732626,8.734048,2.347020,-4.356392,-0.698976
124000,-1.110910,-0.823605,8.705317,2.972974,-4.249522,-0.042487
128000,-1.000776,-0.814029,8.870518,3.247783,-3.211354,0.583467
132000,-1.027112,-0.804452,8.896853,3.690531,-1.822041,1.239955
136000,-0.948104,-0.782904,8.829816,4.072211,0.010020,1.988047
140000,-1.015141,-0.742203,8.863335,3.736333,1.979486,2.446062
144000,-0.924162,-0.732626,8.801085,3.919539,4.040555,3.148352
148000,-0.995988,-0.658405,8.647857,3.843203,4.666509,3.697971
152000,-0.770933,-0.687136,8.540117,3.263050,5.353531,3.789574
156000,-0.773327,-0.600945,8.556877,2.591295,5.842081,3.850643
160000,-0.746991,-0.663194,8.599973,1.751600,5.231394,3.438429
164000,-0.660800,-0.684742,8.724471,1.736333,4.819180,3.026215
168000,-0.715866,-0.742203,8.743625,2.118012,4.941318,2.720871
172000,-0.773327,-0.687136,8.667010,2.118012,5.399333,2.323925
176000,-0.756568,-0.723049,8.676587,1.965340,5.338264,2.232322
180000,-0.790087,-0.670376,8.686164,1.644730,5.338264,1.942245
184000,-0.811634,-0.744597,8.619126,1.843203,4.712310,1.942245
188000,-0.883460,-0.684742,8.571242,1.644730,3.552005,1.759039
192000,-0.902614,-0.682347,8.602366,1.766867,2.269562,1.255223
196000,-0.885855,-0.658405,8.588001,2.011142,1.139791,1.255223
200000,-0.895431,-0.624887,8.602366,2.423356,0.422234,1.178887
204000,-0.857124,-0.591368,8.564059,2.682898,-0.127385,0.995681
208000,-0.921768,-0.445322,8.523358,2.820302,-1.104484,0.934612
212000,-0.945710,-0.387861,8.499416,2.102745,-1.837308,0.827742
216000,-0.895431,-0.323217,8.657434,1.369921,-2.386927,0.583467
220000,-0.919373,-0.330400,8.769960,1.186714,-2.463263,0.797207
224000,-0.943315,-0.227449,8.801085,1.644730,-1.852576,0.980413
228000,-1.005565,-0.227449,8.652645,1.247783,-1.302957,1.163620
232000,-1.039083,-0.229843,8.667010,0.637096,-1.333492,1.530032
236000,-0.988805,-0.198719,8.707711,-0.187331,-1.089217,1.484230
240000,-1.003170,-0.234632,8.865729,-0.828552,-1.318224,1.606368
244000,-1.094150,-0.232238,8.786720,-1.179698,-1.898377,1.484230
248000,-1.118092,-0.296881,8.836999,-1.897255,-2.951812,1.926978
252000,-1.122881,-0.270545,8.930372,-2.187331,-3.333492,2.461329
256000,-1.106121,-0.229843,8.983045,-2.278934,-3.516698,2.705604
260000,-0.974440,-0.251391,9.162610,-1.683514,-1.135018,3.072016
264000,-0.924162,-0.110133,9.255983,-0.721682,2.025287,4.018581
268000,-1.383849,-0.059855,8.925584,-3.256034,-6.600667,2.675070
272000,-0.986411,-0.138864,9.009381,-3.240766,-5.272423,3.041482
276000,-0.948104,-0.028730,9.057265,-2.935423,-5.516697,2.720871
280000,-0.826000,0.081403,9.165004,-1.546110,-5.135018,2.507131
284000,-0.773327,0.086191,9.232041,-2.156797,-6.280056,1.926978
288000,-0.852336,0.141258,9.402030,-1.744583,-7.348759,1.468963
292000,-0.737414,0.294487,9.576807,-0.355270,-6.707537,1.606368
296000,-0.746991,0.368707,9.653421,0.392821,-5.180820,1.270490
300000,-0.802058,0.512359,9.562442,0.759233,-4.417461,1.255223
304000,-0.696713,0.557849,9.572019,0.484424,-2.096850,1.530032
308000,-0.706290,0.679953,9.593566,0.881371,-0.554866,1.484230
312000,-0.938527,0.816423,9.495404,1.079844,-0.738072,1.194154
316000,-1.051055,0.938527,9.528923,1.018775,-1.501431,1.117818
320000,-1.185130,1.055843,9.457097,0.072211,-1.822041,1.423162
324000,-0.907402,1.189918,9.430760,1.812669,1.338264,2.079650
328000,-1.177947,1.424550,9.394848,0.224882,4.330631,3.514765
332000,-1.477222,1.462857,9.011775,-1.820919,-3.150285,1.438429
336000,-1.304840,1.553837,8.949526,-2.599545,-3.318224,2.110184
340000,-1.211466,1.577779,8.894460,-4.278934,-0.356392,3.301024
344000,-1.391031,1.558625,8.896853,-7.088095,-1.287690,3.850643
348000,-1.244985,1.486799,8.731653,-7.912522,-3.928911,3.392627
352000,-0.969652,1.434127,8.743625,-8.370538,-2.188453,2.797207
356000,-0.945710,1.304840,8.731653,-9.393438,-2.051049,1.652169
360000,-1.158794,1.364695,8.707711,-10.523210,-5.089217,-0.195159
364000,-1.197101,1.168370,8.655039,-11.469774,-7.715171,-1.172258
368000,-1.256956,1.060631,8.851364,-12.004126,-9.883110,-2.317297
372000,-1.403002,0.895431,8.978256,-11.637713,-14.035782,-3.279129
376000,-1.489193,0.794875,9.327810,-10.507942,-16.951813,-3.828747
380000,-1.570596,0.663194,9.478644,-9.057561,-18.829676,-4.042487
384000,-1.608904,0.493206,9.708488,-7.973591,-19.654102,-3.798213
388000,-1.821988,0.521936,9.854534,-7.179698,-22.509064,-3.676075
392000,-1.855506,0.507571,10.096349,-6.278934,-23.852575,-2.943251
396000,-1.757344,0.423774,10.508151,-4.172065,-22.982347,-1.095922
400000,-1.802834,0.373495,10.699687,-2.752217,-21.608301,0.217055
404000,-1.903390,0.541090,10.788273,-1.515576,-23.272423,1.591100
408000,-1.766921,0.624887,10.840945,-0.446873,-20.768606,3.377360
412000,-1.654393,0.711078,10.984597,-0.110996,-19.211355,4.812475
416000,-1.563414,0.782904,11.075577,0.591295,-15.135018,6.919345
420000,-1.414973,0.916979,11.039664,0.911905,-11.806774,8.186520
424000,-1.522712,0.995988,10.737994,1.064577,-8.600668,9.514764
428000,-1.479617,1.264138,10.508151,-0.828552,-12.615934,9.239955
432000,-1.259350,1.393425,10.467450,-0.248400,-10.020514,9.545299
436000,-1.256956,1.544260,10.110714,-0.614812,-11.669370,9.010947
440000,-1.161188,1.616086,9.825804,-1.698782,-11.837309,8.919344
444000,-1.213860,1.802834,9.691729,-2.920156,-12.814408,8.217054
448000,-1.096544,2.054225,9.514558,-5.210233,-13.547233,8.644535
452000,-1.027112,2.061408,9.397242,-9.210233,-14.554866,8.598734
456000,-0.799663,2.130840,9.220071,-9.759851,-13.241889,8.980413
460000,-0.754174,2.324770,8.966286,-11.133897,-11.196087,9.377359
464000,-0.670376,2.446874,8.597578,-13.149163,-10.417461,9.667436
468000,-0.648829,2.525883,8.372523,-15.072827,-10.524332,9.621634
472000,-0.373495,2.580950,8.200141,-17.668247,-10.447996,9.163619
476000,-0.067038,2.710236,8.224083,-20.294201,-9.684637,8.354459
480000,0.045490,2.753332,8.279149,-22.675880,-9.974713,7.209421
484000,0.062249,2.619257,8.468291,-23.652979,-12.890744,5.255223
488000,0.354342,2.552219,8.477868,-22.889620,-15.394561,2.644536
492000,0.588974,2.645593,8.482656,-21.912521,-16.280056,0.079650
496000,0.826000,2.647987,8.446744,-20.630079,-16.341125,-3.156991
500000,0.972046,2.607286,8.497022,-18.981224,-16.554867,-6.989052
504000,1.252167,2.518700,8.508993,-16.431606,-14.600668,-11.050121
508000,1.323994,2.475605,8.240842,-14.874354,-11.684637,-15.599740
512000,1.249773,2.557007,7.977480,-15.301835,-9.180820,-19.920349
516000,1.189918,2.454057,7.783550,-17.042292,-7.867843,-24.118822
520000,0.995988,2.240973,7.915231,-18.813284,-7.806774,-28.210426
524000,0.756568,2.027889,8.149862,-19.958323,-8.432729,-31.615005
528000,0.507571,1.702277,8.386889,-19.927788,-9.867843,-34.958519
532000,0.260968,1.491588,8.671799,-21.500307,-13.058682,-38.271496
536000,-0.067038,1.086968,8.942344,-18.538475,-8.844942,-38.744778
540000,-0.725443,0.821211,8.722076,-20.553743,-19.883110,-40.790577
544000,-0.656011,0.433351,9.026140,-20.065193,-19.196087,-39.492870
548000,-0.883460,0.239420,9.114726,-20.645346,-18.783875,-38.164623
552000,-1.209072,0.021548,9.212888,-22.828552,-21.669371,-36.698975
556000,-1.151611,-0.248997,9.291897,-24.645346,-26.936544,-35.828747
560000,-0.902614,-0.572214,9.414001,-24.553743,-25.913645,-34.149357
564000,-0.873884,-0.641646,9.418790,-24.202599,-25.073950,-32.866913
568000,-0.761356,-0.907402,9.390059,-23.943056,-20.860210,-31.050119
572000,-0.890643,-0.967257,9.193734,-24.782751,-21.287691,-30.653173
576000,-0.636858,-0.998382,9.119514,-24.920155,-17.638836,-29.309662
580000,-0.768539,-1.240196,9.229648,-25.561377,-15.302958,-28.775311
584000,-0.849942,-1.364695,9.085996,-25.530842,-15.745706,-28.500502
588000,-1.173159,-1.173159,9.121908,-25.271299,-28.417461,-30.637907
592000,-0.679953,-1.515530,9.519346,-24.569010,-23.119751,-28.256227
596000,-0.699107,-1.687912,9.856929,-20.477407,-13.883110,-26.302029
600000,-1.041478,-1.659182,9.327810,-19.286568,-14.799141,-26.179892
604000,-0.790087,-1.671153,9.179369,-20.065193,-13.806774,-25.599739
608000,-0.828394,-1.788469,8.983045,-21.408705,-10.570133,-24.790579
612000,-1.103727,-1.810017,8.846576,-21.652979,-7.562499,-23.721876
616000,-1.206678,-1.896208,8.820239,-22.843819,-8.035782,-22.515770
620000,-1.364695,-1.812411,8.738836,-24.431606,-13.302958,-22.179892
624000,-1.063026,-1.848324,8.480263,-25.973591,-11.654102,-19.767677
628000,-0.888249,-1.814805,8.755595,-27.729315,-8.295323,-17.538670
632000,-0.931344,-1.958457,8.662222,-29.591911,-8.295323,-15.599740
636000,-0.725443,-1.910573,8.604761,-29.225498,-10.570133,-14.057755
640000,-0.368707,-1.924938,8.875306,-29.622444,-9.593034,-12.164625
644000,-0.031125,-2.013524,9.018958,-29.866718,-8.524332,-11.431801
648000,-0.007183,-1.924938,8.825027,-29.866718,-13.073950,-12.225694
652000,0.193930,-1.946486,8.805874,-29.164429,-14.371660,-12.515770
656000,0.426168,-1.994370,9.014170,-27.759850,-11.593034,-11.966152
660000,0.203507,-2.094927,9.014170,-26.187330,-19.226622,-13.996686
664000,0.447716,-2.291251,9.062054,-23.439240,-22.157919,-15.172258
668000,0.620098,-2.298434,9.174581,-19.820919,-24.188454,-16.653173
672000,0.617704,-2.427721,9.054871,-17.317102,-28.631203,-18.531036
676000,0.773327,-2.497152,8.841787,-13.698781,-29.028149,-19.905083
680000,0.689530,-2.528277,8.420407,-11.820919,-30.157919,-20.989052
684000,0.553061,-2.573767,7.999028,-11.072827,-31.684637,-22.179892
688000,0.593762,-2.528277,7.759608,-11.210233,-31.760973,-22.485235
692000,0.610521,-2.497152,7.563283,-11.759851,-32.753338,-22.714243
696000,0.385466,-2.590526,7.302315,-11.591911,-32.295322,-22.668442
700000,0.373495,-2.667141,7.304709,-11.271301,-30.264790,-20.057755
704000,0.385466,-2.954445,7.321469,-9.775118,-30.463263,-17.691341
708000,0.677559,-3.074155,7.354988,-9.500309,-28.768606,-14.866915
712000,1.130063,-3.098097,7.189788,-12.141530,-20.020515,-10.347831
716000,1.580173,-3.236961,7.271191,-14.278935,-5.837308,-5.813479
720000,1.733402,-3.244143,7.194576,-15.546111,7.277195,-2.149358
724000,1.771709,-3.208230,6.742072,-17.164431,15.017653,0.537665
728000,1.690306,-3.224990,6.143522,-19.378170,17.063456,1.926978
732000,1.920150,-3.191471,5.839458,-22.019392,18.727577,2.904078
736000,2.224213,-3.268085,5.552154,-25.072826,22.269562,2.705604
740000,2.319981,-3.323152,5.403713,-26.416338,26.620707,2.629268
744000,2.248155,-3.363853,5.511452,-32.202599,24.193226,0.384994
748000,2.504335,-3.541024,5.382165,-32.431606,27.429867,-0.744777
752000,2.449268,-3.761291,5.489904,-34.660614,26.315363,-2.561571
756000,2.829947,-4.015076,5.513846,-33.729317,28.406965,-5.095922
760000,3.011906,-4.113238,5.633556,-32.126263,28.987120,-9.477602
764000,3.165135,-4.292804,5.310339,-29.820919,32.071087,-13.782946
768000,3.397372,-4.290410,5.075707,-27.973591,34.574905,-18.561571
772000,3.327940,-4.280833,4.735731,-28.675880,30.529104,-24.637907
776000,3.418920,-4.326323,4.299986,-31.622444,26.345898,-31.050119
780000,3.524265,-4.295198,4.414908,-35.561375,23.887882,-37.416534
784000,3.598485,-4.522647,4.611232,-38.248398,24.025288,-42.836380
788000,3.775656,-4.613626,4.702212,-41.362904,24.132156,-48.836380
792000,3.962404,-4.874595,5.293580,-45.027027,23.658875,-54.973785
796000,3.737349,-5.284003,5.815516,-48.187332,22.620707,-61.737144
800000,3.584120,-5.422867,6.270414,-49.683514,24.513836,-67.462334
804000,3.579332,-5.892130,7.041347,-51.286568,29.490936,-71.416534
808000,3.605668,-6.169858,8.025364,-50.187332,30.880249,-78.347832
812000,3.658340,-6.545747,9.260772,-45.988857,45.750477,-82.546303
816000,3.169923,-7.022193,9.483433,-35.454506,52.773376,-89.050117
820000,2.444480,-7.156269,9.380483,-27.790384,53.552006,-96.592102
824000,1.910573,-7.371747,9.212888,-21.683514,56.452766,-103.050117
828000,0.936133,-7.503428,9.191340,-17.454506,60.544373,-109.844017
832000,-0.304064,-7.577648,8.932767,-12.752217,56.697041,-117.553940
836000,-1.525106,-7.762002,8.628703,-5.423973,54.483303,-123.279129
840000,-3.287239,-7.917625,7.881712,1.003508,49.796280,-126.897446
844000,-5.245696,-8.063671,7.151481,6.347020,40.987118,-128.698975
848000,-7.019799,-8.121132,6.567295,9.110378,24.880249,-129.034851
852000,-7.979874,-8.288726,6.471527,10.774501,8.269562,-125.798210
856000,-8.978256,-8.504205,6.880936,10.713432,-12.692270,-121.981415
860000,-9.737218,-8.848969,7.297527,11.263050,-33.684635,-115.950882
864000,-10.517728,-9.165004,7.893683,9.217249,-53.394562,-106.317299
868000,-10.936713,-8.906430,8.511387,4.560760,-69.776237,-92.378365
872000,-10.860099,-9.222465,9.018958,2.179081,-81.715164,-74.240959
876000,-10.465055,-9.327810,9.564836,2.179081,-90.982346,-54.256226
880000,-9.404425,-9.014170,10.010158,5.156180,-88.081581,-33.935616
884000,-8.485051,-8.659827,9.998186,3.965340,-80.402191,-13.645541
888000,-7.618350,-8.164227,9.801862,0.667630,-78.814407,4.980413
892000,-6.040571,-7.611167,9.734824,-2.630080,-75.104477,21.896444
896000,-4.110844,-7.024588,10.005369,-3.362904,-65.928909,37.468964
900000,-2.451663,-6.330269,10.170568,-1.378171,-56.188454,49.041481
904000,-0.857124,-5.765238,9.871294,3.415722,-43.486164,59.178886
908000,0.818817,-5.123591,9.900024,6.484425,-37.638836,63.972778
912000,2.217031,-4.352659,9.720459,10.331753,-38.096851,63.926979
916000,3.866636,-3.658340,9.308656,14.331753,-39.867844,60.217056
920000,4.932055,-3.083732,8.803479,21.873737,-43.669369,53.194153
924000,5.829881,-2.667141,8.214506,25.843204,-41.989979,45.759041
928000,6.040571,-2.353500,7.800309,29.079845,-43.867844,36.354462
932000,5.985504,-1.920150,6.979098,32.682896,-52.371658,24.125452
936000,6.524199,-1.537078,6.739678,36.667633,-45.257156,16.400261
940000,6.342240,-1.288081,6.270414,37.217251,-40.615936,7.652170
944000,5.928043,-1.156399,5.942409,36.667633,-35.883110,0.247589
948000,5.173870,-1.098939,5.477933,33.965340,-37.318226,-7.630273
952000,4.623203,-0.914585,4.958392,31.827936,-36.844944,-13.905083
956000,4.046201,-0.926556,4.472369,27.934807,-31.226622,-17.202791
960000,3.440468,-0.878672,4.613626,22.102745,-24.463263,-18.302029
964000,2.710236,-1.079785,4.565742,16.652363,-19.837309,-18.576838
968000,2.298434,-1.101333,4.429273,11.904272,-15.989981,-17.492868
972000,1.793257,-1.209072,4.307169,5.553127,-10.402194,-14.011953
976000,1.333570,-1.297657,4.766856,0.041676,-5.012881,-9.706610
980000,1.096544,-1.391031,5.169082,-5.088095,-1.135018,-4.683709
984000,1.496376,-1.601721,5.724536,-9.057561,6.284829,0.049116
988000,1.687912,-1.702277,6.229713,-12.660613,12.239027,2.781940
992000,1.771709,-1.898602,6.888118,-14.874354,14.758111,3.789574
996000,2.066196,-2.147599,7.453150,-16.004124,18.590172,4.522398
1000000,1.867477,-2.415750,8.324639,-14.309468,23.689409,4.751406
1004000,1.470040,-2.564190,8.825027,-12.950690,20.987120,4.690337
1008000,1.319205,-2.676718,9.102755,-9.485042,19.460402,4.980413
1012000,1.199495,-2.825158,9.284714,-6.019393,19.781012,6.064383
1016000,1.089362,-2.882619,9.176975,-4.721683,14.025287,5.835375
1020000,1.213860,-2.834735,9.574412,-0.263667,15.796280,6.430795
1024000,1.149217,-2.820370,9.856929,2.637096,16.147425,7.392627
1028000,1.053449,-2.832341,10.012551,5.858470,11.811546,6.919345
1032000,1.221043,-2.851494,9.897630,10.392821,15.429867,8.491863
1036000,1.244985,-2.738967,9.775525,13.721066,17.674141,9.957512
1040000,1.187524,-2.703054,9.526528,16.316486,20.895515,11.789574
1044000,1.096544,-2.497152,9.217676,16.911905,20.376432,12.537665
1048000,1.376666,-2.391808,9.090784,17.919538,23.292461,13.850642
1052000,1.328782,-2.286463,8.851364,18.835569,24.452768,14.446062
1056000,1.264138,-1.972822,8.453926,18.728699,23.246660,14.812474
1060000,1.434127,-1.776498,8.185776,17.079845,22.910784,15.209421
1064000,1.541866,-1.649605,7.958326,14.957706,26.605440,16.003315
1068000,1.668759,-1.441309,7.599196,12.667630,27.582539,15.545299
1072000,1.719037,-1.259350,7.323863,10.179081,26.788645,14.094917
1076000,1.671153,-1.225831,7.000646,8.163814,29.353531,13.010947
1080000,1.403002,-1.067814,6.768408,4.530226,28.071089,11.545299
1084000,1.233014,-0.988805,6.734890,-0.324736,23.552004,9.850642
1088000,1.319205,-1.149217,6.909666,-4.950690,21.429867,8.537665
1092000,1.374272,-1.283292,7.247249,-8.538477,20.147425,7.026215
1096000,1.264138,-1.493982,7.608773,-10.767485,19.002386,5.377360
1100000,1.079785,-1.572991,7.967903,-11.988858,16.422234,3.575833
1104000,0.857124,-1.836353,8.288726,-12.431607,15.964218,2.873543
1108000,0.577003,-1.946486,8.456321,-14.233132,13.750478,3.194154
1112000,0.474052,-2.181118,8.932767,-14.492675,15.689409,5.163620
1116000,0.371101,-2.284068,9.133880,-13.408706,13.597806,6.247589
1120000,0.428562,-2.339135,9.148245,-10.874354,12.895515,7.774307
1124000,0.600945,-2.348712,9.167398,-8.187331,12.284829,8.751406
1128000,0.739808,-2.274492,8.793902,-5.912522,11.597806,8.766672
1132000,0.821211,-2.243367,8.623915,-3.088094,9.582539,7.621635
1136000,0.914585,-2.262521,8.532935,-1.500308,6.391699,5.713238
1140000,0.876278,-2.207454,8.470686,-1.637713,2.025287,3.362093
1144000,0.830788,-2.300828,8.597578,-1.179698,-1.944179,0.766673
1148000,0.418985,-2.355895,8.669404,0.087478,-7.119751,-1.630274
1152000,0.237026,-2.331953,8.810662,2.240149,-13.012881,-3.233327
1156000,0.081403,-2.375048,8.829816,3.980608,-20.218988,-4.653174
1160000,0.023942,-2.296039,8.688558,5.308852,-25.913645,-5.355464
1164000,0.143652,-2.281674,8.623915,5.507325,-28.463263,-5.538671
1168000,0.464475,-2.288857,8.983045,5.369921,-21.226622,-3.813480
1172000,-0.071826,-2.178724,8.631097,2.255417,-33.852577,-5.920350
1176000,0.368707,-2.327164,8.640674,-0.202598,-31.745707,-4.729510
1180000,0.644040,-2.267309,9.085996,-2.233133,-25.837309,-3.019587
1184000,0.471658,-2.327164,9.155427,-4.981225,-23.226622,-2.073022
1188000,0.758962,-2.434903,9.085996,-7.683515,-19.440363,-1.248594
1192000,0.993594,-2.363077,9.387665,-9.317102,-13.486164,0.110184
1196000,1.137246,-2.516306,9.545682,-10.355270,-9.180820,0.323925
1200000,1.335965,-2.504335,9.521740,-9.759851,-4.921278,-0.164625
1204000,1.335965,-2.614468,9.636662,-8.233133,3.796279,-0.118823
1208000,1.106121,-2.595315,9.540894,-6.599545,9.170325,-0.683709
1212000,0.931344,-2.588132,9.363723,-5.332370,12.147424,-1.492869
1216000,0.809240,-2.554613,8.990228,-5.652981,14.529103,-2.454701
1220000,0.553061,-2.667141,9.050082,-5.652981,18.269562,-2.546304
1224000,0.306458,-2.736573,9.009381,-5.423973,19.032921,-2.439434
1228000,0.184354,-2.784456,9.066842,-3.317102,17.704676,-2.332564
1232000,-0.105345,-2.870648,9.026140,1.110379,13.994752,-2.683709
1236000,-0.244209,-2.743755,8.791509,5.461524,7.185593,-2.927984
1240000,-0.162806,-2.683900,8.461109,7.721066,0.742844,-4.011953
1244000,-0.225055,-2.561796,8.288726,8.621829,-5.180820,-5.156991
1248000,-0.220267,-2.444480,8.121132,9.186714,-10.310591,-6.500503
1252000,-0.294487,-2.422932,8.118738,8.911905,-15.913645,-7.187525
1256000,-0.390255,-2.406173,8.250419,9.308852,-19.104485,-6.469968
1260000,-0.308852,-2.449268,8.300697,8.698165,-20.295324,-5.065388
1264000,-0.067038,-2.310405,8.197746,8.026409,-19.394560,-3.889816
1268000,0.167594,-2.221819,8.123527,7.171447,-16.661736,-2.439434
1272000,0.162806,-2.094927,7.759608,6.606562,-16.035782,-2.118823
1276000,0.313640,-2.073379,7.546524,3.476791,-12.188454,-0.882182
1280000,0.181959,-2.114080,7.750031,0.789768,-9.898377,-1.508136
1284000,0.323217,-2.056619,7.733272,-1.469774,-10.264790,-1.553938
1288000,0.373495,-2.044648,7.965509,-3.378171,-10.341125,-1.553938
1292000,0.344765,-2.176329,8.025364,-3.897255,-10.341125,-1.370732
1296000,0.313640,-2.293645,8.358158,-3.943056,-10.280057,-1.248594
1300000,0.490811,-2.312799,8.480263,-2.477408,-13.196087,-2.149358
1304000,0.639252,-2.408567,8.585608,-2.416339,-12.890744,-3.385999
1308000,0.648829,-2.485181,8.621520,-2.416339,-11.226622,-4.485235
1312000,0.488417,-2.513912,8.592790,-2.507942,-12.677003,-5.401266
1316000,0.411803,-2.655170,8.736442,-2.156797,-13.654102,-5.782945
1320000,0.237026,-2.762909,9.030929,-2.660614,-14.753339,-5.569205
1324000,0.244209,-3.009511,9.658210,-0.645346,-12.615934,-3.767678
1328000,0.177171,-3.069367,10.125079,3.965340,-12.753339,-2.454701
1332000,0.395043,-3.112462,10.371682,8.331753,-8.035782,-0.607373
1336000,0.423774,-2.973598,10.014946,11.140913,-6.585400,0.140719
1340000,0.562637,-2.849100,9.493010,13.385187,-5.318224,0.552933
1344000,0.562637,-2.647987,9.018958,13.782134,-3.119751,0.736139
1348000,0.732626,-2.406173,8.738836,13.354653,0.697043,1.148352
1352000,0.706290,-2.135628,8.336611,11.186714,4.345898,0.873543
1356000,0.548272,-2.061408,8.250419,8.194348,4.162692,-0.210426
1360000,0.524330,-2.042254,8.367735,6.835569,5.872615,-0.256228
1364000,0.390255,-1.982399,8.322245,6.698165,6.529104,-0.088289
1368000,0.359130,-1.946486,8.135497,6.331753,5.933684,-0.439434
1372000,0.462081,-1.989582,7.910442,5.889005,5.155058,-1.370732
1376000,0.328006,-1.968034,7.795521,4.728699,4.177959,-2.378365
1380000,0.122104,-2.097321,7.764396,2.927173,3.216127,-2.576838
1384000,-0.225055,-2.238579,7.826645,1.217249,1.063455,-2.576838
1388000,-0.304064,-2.353500,8.006210,0.148546,-1.440362,-1.508136
1392000,-0.323217,-2.377442,8.061277,-0.614812,-4.539598,-0.149358
1396000,-0.201113,-2.391808,8.317456,-1.576644,-6.692270,1.102551
1400000,0.083797,-2.439692,8.473080,-2.462140,-7.348759,1.988047
1404000,0.500388,-2.425326,8.698134,-3.133896,-6.844942,2.155986
1408000,0.620098,-2.377442,8.626308,-3.103362,-5.593033,1.682703
1412000,0.615310,-2.415750,8.683769,-3.469774,-3.623568,1.988047
1416000,0.430956,-2.475605,8.743625,-4.004126,-3.638835,1.667436
1420000,0.282516,-2.614468,8.810662,-3.210232,-2.615934,2.629268
1424000,0.179565,-2.506729,9.066842,-1.759850,-0.142652,5.087284
1428000,0.225055,-2.537854,9.136273,-1.011759,4.132157,7.606368
1432000,0.521936,-2.533065,8.973468,-1.546110,9.139791,10.140718
1436000,0.627281,-2.418144,8.839393,-3.149163,14.834447,12.079650
1440000,0.723049,-2.324770,8.662222,-4.431606,18.330629,12.781940
1444000,0.840365,-2.248155,8.427590,-5.637713,20.040554,13.026215
1448000,1.024718,-2.173935,8.580819,-5.973591,20.513836,11.911711
1452000,0.981623,-2.267309,8.595184,-5.164431,17.506203,10.308658
1456000,0.950498,-2.317587,9.107543,-3.439240,15.460402,8.980413
1460000,0.950498,-2.430115,9.272743,0.713432,12.803913,7.468963
1464000,0.811634,-2.384625,9.136273,4.316485,12.376431,6.690337
1468000,0.584185,-2.360683,8.789114,7.400455,10.361164,5.789574
1472000,0.555455,-2.190695,8.626308,9.064577,9.506203,5.331559
1476000,0.557849,-2.145205,8.176199,9.797401,9.735210,4.781940
1480000,0.411803,-2.056619,8.008605,8.621829,8.132157,4.323925
1484000,0.390255,-1.932121,7.855376,7.064577,4.849715,3.835375
1488000,0.440533,-1.929727,8.121132,5.766867,1.658875,3.820108
1492000,0.584185,-1.970428,8.238448,5.247783,-0.020514,3.606368
1496000,0.701501,-1.982399,8.339005,5.415722,-0.524331,3.636902
1500000,0.790087,-2.037466,8.439561,5.308852,-0.661736,2.995681
1504000,0.869095,-2.030283,8.291121,4.759233,0.452768,2.125452
1508000,0.749385,-2.030283,8.501810,3.110379,3.063455,2.079650
1512000,0.591368,-2.039860,8.341399,1.950073,5.719944,2.293390
1516000,0.588974,-2.030283,8.200141,0.469157,7.948951,2.888810
1520000,0.478840,-2.099715,8.066066,-0.507942,9.674142,3.438429
1524000,0.495600,-2.030283,7.812280,-1.515576,10.712310,3.468963
1528000,0.497994,-2.044648,7.675811,-1.790385,11.445134,3.102551
1532000,0.368707,-1.960851,7.381324,-2.507942,11.643607,2.827742
1536000,0.220267,-1.987187,7.256825,-3.714049,10.345898,2.003314
1540000,0.201113,-2.030283,7.350199,-4.859087,8.315363,1.377360
1544000,0.000000,-2.085350,7.448361,-5.332370,5.017653,0.659803
1548000,0.023942,-2.183512,7.390901,-5.668247,0.880249,0.552933
1552000,0.169988,-2.243367,7.644686,-5.561378,-1.043415,0.522398
1556000,0.268151,-2.219425,7.716512,-6.034659,-2.615934,-0.256228
1560000,0.486023,-2.274492,7.841011,-5.988858,-4.218988,-1.126457
1564000,0.557849,-2.296039,8.070854,-6.462141,-5.852575,-2.393632
1568000,0.538695,-2.260126,8.113950,-6.523210,-7.287690,-3.477602
1572000,0.308852,-2.355895,8.508993,-6.309469,-9.547233,-4.332564
1576000,0.117316,-2.521094,8.846576,-4.675881,-11.959446,-4.531037
1580000,-0.088585,-2.607286,9.267955,-2.263667,-14.493797,-3.721877
1584000,-0.052672,-2.655170,9.373300,0.118012,-15.745706,-2.729510
1588000,0.074220,-2.707842,9.519346,2.209615,-16.356392,-1.828747
1592000,0.153229,-2.640805,9.349358,3.721066,-15.745706,-0.927984
1596000,0.280122,-2.671929,9.442732,4.576027,-14.417461,-0.179892
1600000,0.296881,-2.597709,9.287108,4.469157,-12.982347,0.293391
1604000,0.304064,-2.588132,9.191340,4.056943,-11.486164,0.904078
1608000,0.337582,-2.597709,9.323022,3.324119,-10.234255,1.682703
1612000,0.399832,-2.568978,9.380483,3.003508,-8.967080,2.217055
1616000,0.284910,-2.568978,9.232041,4.453890,-7.516697,3.010948
1620000,0.275333,-2.518700,9.090784,6.591295,-5.516697,4.049116
1624000,0.395043,-2.336741,8.621520,7.690531,-3.913644,4.873543
1628000,0.462081,-2.176329,8.068460,7.797401,-2.066316,5.346826
1632000,0.538695,-2.020706,7.649475,6.927173,-0.951812,5.667437
1636000,0.445322,-1.936909,7.388506,4.805035,-1.333492,5.407895
1640000,0.512359,-1.989582,7.326257,2.362287,-3.806774,5.301024
1644000,0.639252,-1.889025,7.393295,-0.340003,-8.096850,3.911711
1648000,0.816423,-1.877054,7.469909,-1.912522,-9.516698,3.255223
1652000,0.835576,-1.905785,7.790732,-2.630080,-9.425095,3.224688
1656000,0.718261,-2.001553,7.814674,-1.637713,-9.425095,2.339192
1660000,0.684742,-1.963245,7.654263,-1.683514,-8.295323,2.965146
1664000,0.758962,-1.910573,7.596802,-3.027026,-6.127385,3.484231
1668000,0.770933,-1.869871,7.759608,-5.271301,-4.264789,3.514765
1672000,0.847547,-1.920150,8.034941,-7.011759,-3.455629,3.270490
1676000,0.790087,-2.037466,8.269572,-6.706415,-3.776240,3.316291
1680000,0.766145,-2.090138,8.487445,-5.958323,-4.432728,3.438429
1684000,0.900220,-2.035071,8.757990,-5.591911,-5.364026,2.965146
1688000,1.122881,-2.106898,8.880095,-5.301835,-5.654102,2.659803
1692000,1.199495,-2.142811,8.793902,-4.355270,-7.623568,1.010948
1696000,1.419762,-2.209848,8.932767,-3.759850,-2.982346,0.323925
1700000,1.187524,-2.296039,8.892065,-3.133896,-0.860209,-1.553938
1704000,0.667982,-2.446874,8.722076,-2.340003,-1.883110,-2.683709
1708000,0.193930,-2.557007,8.750807,-2.095728,-4.906011,-2.653174
1712000,0.052672,-2.753332,9.016563,-2.416339,-5.089217,-1.279129
1716000,-0.002394,-2.753332,8.999804,-1.958324,-6.280056,-0.439434
1720000,0.019154,-2.774880,8.923190,-1.210232,-7.135018,0.568200
1724000,0.110133,-2.806004,8.892065,0.179081,-6.493797,1.423162
1728000,0.155623,-2.726996,8.765172,0.957707,-4.447995,2.522398
1732000,0.134075,-2.667141,8.542512,0.805035,-3.501430,3.148352
1736000,0.124498,-2.583344,8.384495,-0.202598,-3.806774,3.759039
1740000,0.122104,-2.557007,8.441956,-0.904888,-3.745705,4.766673
1744000,0.198719,-2.559402,8.688558,-0.446873,-2.234255,6.476597
1748000,0.344765,-2.434903,8.678981,0.209615,-0.142652,8.675070
1752000,0.553061,-2.351106,8.619126,0.957707,1.842081,10.262856
1756000,0.823605,-2.149993,8.523358,2.179081,4.773379,11.530031
1760000,0.933739,-2.094927,8.248025,2.896638,7.048188,12.140718
1764000,1.077391,-1.958457,8.008605,2.621829,8.544371,12.308658
1768000,1.312023,-1.829170,8.025364,1.629462,10.849714,12.217054
1772000,1.604115,-1.697489,8.207323,0.881371,13.826814,11.988047
1776000,1.711854,-1.795651,8.341399,0.285951,15.368798,10.491863
1780000,1.721431,-1.738190,8.348581,0.102745,16.971851,9.026215
1784000,1.862689,-1.678335,8.298303,0.255417,16.697042,6.522398
1788000,1.800440,-1.687912,8.161834,0.056943,16.406965,3.926979
1792000,1.635240,-1.647211,8.073248,-0.416339,13.139791,0.766673
1796000,1.493982,-1.750161,8.137892,-1.179698,11.506203,-2.317297
1800000,1.163582,-1.831564,8.214506,-0.828552,7.643608,-5.156991
1804000,0.818817,-2.070984,8.360553,0.102745,2.895516,-7.202793
1808000,0.550666,-2.176329,8.470686,1.369921,-1.058682,-8.210426
1812000,0.416591,-2.315193,8.719683,2.179081,-3.058682,-8.454701
1816000,0.313640,-2.422932,8.645462,3.140913,-3.837308,-8.317297
1820000,0.186748,-2.422932,8.458714,3.140913,-3.638835,-7.172258
1824000,0.169988,-2.384625,8.312668,2.087478,-2.081583,-6.347831
1828000,0.093374,-2.427721,8.449138,-0.324736,-0.646469,-4.897449
1832000,-0.043096,-2.430115,8.520964,-1.973591,-0.173186,-3.355464
1836000,-0.014365,-2.456451,8.738836,-2.569010,-0.295324,-1.889816
1840000,0.000000,-2.449268,8.698134,-2.630080,0.651241,0.018581
1844000,0.299275,-2.286463,8.611943,-2.095728,1.582539,1.438429
1848000,0.486023,-2.339135,8.662222,-1.988858,3.048188,2.125452
1852000,0.806846,-2.178724,8.475474,-1.210232,6.620707,2.690337
1856000,0.758962,-2.183512,8.508993,-1.637713,9.292462,2.675070
1860000,0.679953,-2.044648,8.374918,-2.645346,10.849714,2.659803
1864000,0.644040,-2.118869,8.508993,-3.225499,10.834447,2.934612
1868000,0.773327,-2.224213,8.820239,-3.042293,9.887882,3.652169
1872000,0.916979,-2.209848,9.100361,-1.912522,9.552004,3.774307
1876000,1.192312,-2.188300,9.176975,-1.118629,9.109256,3.285757
1880000,1.343147,-2.128445,9.066842,-0.813286,9.093989,2.201787
1884000,1.441309,-2.003947,8.999804,-0.324736,8.895515,0.659803
1888000,1.362301,-1.917756,8.872911,-0.080461,8.177958,-1.019587
1892000,1.189918,-2.008735,8.746018,-0.126262,6.620707,-2.714243
1896000,1.046266,-2.030283,8.925584,0.118012,4.071089,-3.950884
1900000,1.022324,-2.130840,8.987833,1.889004,2.269562,-4.775311
1904000,0.952892,-2.176329,8.966286,3.827936,1.506203,-5.630273
1908000,0.845153,-2.205060,8.815451,5.095111,1.307730,-6.515769
1912000,0.711078,-2.149993,8.590396,5.721066,1.735211,-7.355464
1916000,0.452504,-2.219425,8.238448,5.461524,1.552005,-8.240961
1920000,0.217872,-2.147599,7.869741,4.805035,0.254295,-8.531037
1924000,0.126893,-2.221819,7.817069,3.354653,-1.577766,-8.729510
1928000,-0.045490,-2.159570,7.860164,2.179081,-4.081583,-9.065389
1932000,-0.181959,-2.296039,7.814674,1.354653,-8.005247,-9.172258
1936000,-0.174777,-2.260126,7.805098,1.400455,-12.875477,-9.233328
1940000,-0.146046,-2.248155,7.620744,0.682898,-17.470896,-9.538671
1944000,-0.117316,-2.274492,7.584831,-0.431606,-20.677004,-9.996686
1948000,-0.043096,-2.274492,7.627927,-1.729316,-21.852575,-9.935617
1952000,0.033519,-2.432509,7.838616,-3.072828,-21.348759,-9.492869
1956000,-0.021548,-2.607286,8.169016,-3.958324,-19.623568,-8.439434
1960000,-0.021548,-2.715025,8.542512,-4.416339,-17.547232,-6.836380
1964000,0.071826,-2.846706,8.832211,-3.698782,-14.768606,-5.584472
1968000,-0.028730,-2.911349,9.004593,-2.630080,-12.600668,-3.966152
1972000,0.055067,-2.810793,8.930372,-1.072828,-10.814408,-3.004319
1976000,-0.002394,-2.772485,8.621520,-0.950690,-9.898377,-2.164625
1980000,0.016759,-2.592921,8.707711,-1.943056,-8.997614,-1.218060
1984000,0.203507,-2.628834,8.762778,-2.614812,-8.249522,-0.531037
1988000,0.248997,-2.628834,8.817844,-3.301835,-7.119751,-0.073022
1992000,0.196325,-2.662352,8.920795,-3.317102,-7.287690,0.644536
1996000,0.294487,-2.652776,8.990228,-3.225499,-7.196087,1.133085
