time_us,ax,ay,az,gx,gy,gz
0,-1.142034,-1.012747,8.372523,-3.042293,-2.356392,-0.225693
4000,-1.151611,-1.060631,8.312668,-3.485041,-2.844942,0.491864
8000,-1.165976,-1.144428,8.501810,-4.065194,-3.654102,1.407894
12000,-1.094150,-1.213860,8.477868,-4.675881,-3.928911,2.232322
16000,-1.115698,-1.223437,8.523358,-5.332370,-4.142652,2.919345
20000,-0.845153,-1.237802,8.602366,-6.065194,-3.272423,3.591101
24000,-0.694318,-1.168370,8.705317,-6.019393,-2.127385,3.224688
28000,-0.684742,-1.180341,8.769960,-5.561378,-2.142652,3.041482
32000,-0.699107,-1.194707,8.956709,-4.950690,-2.203721,2.659803
36000,-0.560243,-1.144428,9.059659,-4.446874,-3.211354,2.079650
40000,-0.483629,-1.271321,9.145850,-3.317102,-3.745705,1.438429
44000,-0.567426,-1.211466,9.244013,-2.416339,-4.738071,0.339192
48000,-0.505177,-1.199495,9.306262,-1.286568,-4.142652,-0.179892
52000,-0.634463,-1.120486,9.263166,-0.645346,-3.486163,-0.698976
56000,-0.648829,-1.091756,9.239224,0.209615,-2.371660,-1.218060
60000,-0.749385,-1.060631,9.042900,0.179081,-1.379293,-1.263861
64000,-0.974440,-0.967257,8.971074,-0.156797,-1.211354,-1.080655
68000,-1.070208,-0.976834,9.021352,-0.462140,-1.104484,-0.775312
72000,-1.163582,-1.015141,8.889671,-0.340003,-0.890743,-0.546304
76000,-1.204283,-0.912191,8.966286,-0.248400,-1.012881,-0.256228
80000,-1.288081,-0.914585,8.889671,-0.843820,-1.455629,0.354459
84000,-1.283292,-0.950498,8.983045,-1.362904,-2.081583,1.178887
88000,-1.465251,-0.950498,9.167398,-1.347636,-2.799140,1.728505
92000,-1.431733,-0.940921,9.258378,-1.072828,-3.058682,2.797207
96000,-1.446098,-0.924162,9.325416,-0.477408,-3.486163,3.255223
100000,-1.364695,-0.933739,9.354146,0.347020,-3.867843,3.682703
104000,-1.242591,-0.902614,9.246407,1.339386,-3.516698,4.293391
108000,-1.280898,-0.828394,9.081207,2.026409,-3.257156,4.751406
112000,-1.280898,-0.778116,9.074024,2.041676,-3.883110,5.484231
116000,-1.247379,-0.682347,8.983045,1.797401,-4.402194,6.522398
120000,-1.115698,-0.543484,9.193734,1.064577,-4.570133,7.743772
124000,-1.019930,-0.486023,9.277532,0.789768,-4.234255,8.995680
128000,-0.804452,-0.332794,9.303867,0.392821,-2.447995,10.094917
132000,-0.517148,-0.155623,9.153033,-0.599545,-0.280056,10.675070
136000,-0.184354,-0.009577,9.220071,-1.622446,9.032920,12.293390
140000,-0.574608,0.148441,9.215282,-1.164430,7.384066,11.316291
144000,-0.450110,0.359130,8.925584,-3.225499,-2.096850,10.094917
148000,0.102951,0.397437,9.244013,-3.943056,1.506203,10.003314
152000,0.047884,0.469264,9.299079,-3.179698,3.399333,9.835375
156000,0.186748,0.727837,9.339781,-3.408705,5.155058,8.873543
160000,0.057461,0.952892,9.440337,-4.446874,4.727577,7.438429
164000,0.028730,0.861913,9.054871,-4.324736,3.552005,6.675070
168000,0.100556,0.857124,9.191340,-3.698782,5.246661,5.133085
172000,-0.059855,0.770933,9.172187,-2.614812,6.574905,3.957513
176000,-0.256180,0.864307,8.959103,-1.805652,2.559638,1.362093
180000,-0.402226,0.876278,8.817844,-1.607178,-1.379293,-0.683709
184000,-0.493206,0.826000,8.801085,-1.530843,-2.203721,-1.950884
188000,-0.854730,0.837971,8.911219,-1.103362,-4.234255,-3.202793
192000,-1.060631,0.763750,8.927979,-1.378171,-10.356393,-4.729510
196000,-1.079785,0.696713,8.983045,-0.721682,-11.425095,-5.141724
200000,-1.326388,0.768539,9.078813,-0.370538,-15.379293,-6.408899
204000,-1.230620,0.720655,9.100361,0.423356,-16.921278,-6.149357
208000,-1.297657,0.684742,9.339781,-0.278934,-17.394560,-5.828747
212000,-1.343147,0.665588,9.318233,-0.691148,-16.570133,-4.989052
216000,-1.331176,0.615310,9.454702,-2.156797,-15.196087,-3.538671
220000,-1.235408,0.687136,9.459491,-3.042293,-12.478530,-2.088289
224000,-1.254562,0.749385,9.263166,-4.935423,-11.165553,-0.653174
228000,-1.316811,0.773327,9.323022,-6.630079,-10.936545,0.675070
232000,-0.984017,0.742203,9.550470,-8.263667,-8.249522,2.522398
236000,-1.086968,0.749385,9.545682,-10.553743,-6.447995,3.926979
240000,-0.943315,0.859518,9.691729,-12.614812,-4.173186,5.239955
244000,-0.778116,1.029507,9.607931,-14.645347,-1.043415,6.446063
248000,-0.658405,1.012747,9.572019,-16.263666,2.071089,7.316291
252000,-0.627281,1.091756,9.615114,-17.820919,4.116890,7.667436
256000,-0.569820,1.108515,9.763555,-18.584276,4.452768,7.575834
260000,-0.471658,1.103727,9.744401,-19.027025,4.895516,6.781940
264000,-0.351948,1.074997,9.655815,-19.194963,3.689409,5.239955
268000,-0.316035,0.988805,9.536105,-18.630079,2.269562,3.545299
272000,-0.301669,0.943315,9.351752,-17.500307,1.521470,1.545299
276000,-0.416591,0.931344,9.313444,-16.614811,-0.142652,-0.958518
280000,-0.320823,0.909797,9.083601,-15.576644,-2.554866,-3.737144
284000,-0.373495,0.976834,8.906430,-14.202600,-4.524331,-7.080655
288000,-0.562637,0.883460,8.621520,-13.103362,-7.241889,-10.027221
292000,-0.797269,0.967257,8.394072,-12.126264,-10.310591,-12.714244
296000,-1.012747,0.933739,8.255207,-10.736950,-11.974713,-14.225694
300000,-1.314417,0.955287,8.267179,-11.118629,-17.547232,-15.874549
304000,-1.453280,1.022324,8.130709,-10.935423,-19.073950,-15.981419
308000,-1.472434,0.893037,8.018182,-10.813286,-19.867844,-15.401266
312000,-1.369483,0.945710,8.042124,-10.736950,-18.157919,-14.424167
316000,-1.407791,1.055843,7.795521,-10.752217,-16.860210,-13.721877
320000,-1.381454,0.981623,7.654263,-11.439240,-14.967080,-12.195160
324000,-1.539472,0.967257,7.534553,-11.378171,-18.081583,-11.202793
328000,-1.204283,0.885855,7.735666,-12.340003,-19.699903,-10.683709
332000,-1.000776,0.799663,7.888895,-14.660613,-18.173187,-10.164625
336000,-0.893037,0.723049,7.860164,-17.485041,-15.883110,-10.073022
340000,-0.713472,0.735020,7.841011,-19.332369,-12.280057,-10.240961
344000,-0.857124,0.826000,7.821857,-20.156796,-10.936545,-10.286762
348000,-1.067814,0.708684,7.778761,-23.729315,-18.386927,-11.844014
352000,-0.746991,0.557849,8.468291,-23.240767,-15.760973,-11.584473
356000,-1.055843,0.514753,8.693346,-23.729315,-21.073950,-12.576838
360000,-0.945710,0.375890,9.090784,-23.714048,-23.226622,-13.095922
364000,-0.857124,0.248997,9.358934,-23.225498,-26.295324,-13.706610
368000,-0.859518,0.150835,9.536105,-22.752216,-26.768606,-14.088289
372000,-0.648829,-0.023942,9.639056,-21.408705,-25.287691,-14.149358
376000,-0.560243,-0.258574,9.674969,-19.759850,-25.287691,-14.882182
380000,-0.442927,-0.512359,9.797073,-16.889620,-24.738071,-15.996686
384000,-0.423774,-0.754174,9.883265,-14.889621,-27.150286,-17.645540
388000,-0.399832,-1.003170,9.847352,-11.881988,-27.913645,-19.370731
392000,-0.371101,-1.067814,9.801862,-9.454507,-31.043415,-21.141724
396000,-0.225055,-1.326388,9.579201,-8.049927,-32.447994,-22.760044
400000,-0.311246,-1.292869,9.706094,-5.851454,-32.722805,-24.622639
404000,-0.677559,-1.460463,9.627085,-4.446874,-35.287689,-26.088287
408000,-0.926556,-1.525106,9.636662,-3.668247,-39.318226,-26.485235
412000,-0.895431,-1.431733,9.919178,-3.515576,-41.806774,-26.240959
416000,-0.679953,-1.376666,9.940725,-3.866720,-41.211353,-24.866915
420000,-0.744597,-1.242591,9.854534,-4.431606,-40.829674,-23.370731
424000,-0.536301,-1.163582,9.701305,-6.981225,-36.860210,-20.607372
428000,-0.421380,-0.945710,9.765948,-9.515575,-32.554867,-18.286762
432000,-0.265756,-0.869095,9.557653,-13.118629,-27.883110,-16.149357
436000,0.021548,-0.744597,9.397242,-17.088095,-22.951813,-14.302030
440000,0.174777,-0.577003,9.095572,-20.645346,-18.539598,-12.927984
444000,0.409408,-0.426168,8.961497,-24.706415,-14.554866,-12.500503
448000,0.802058,-0.533907,8.896853,-26.660612,-6.753339,-12.393633
452000,0.648829,-0.495600,8.827422,-30.477406,-2.020514,-12.760045
456000,0.378284,-0.579397,9.107543,-32.385803,-0.432728,-12.866915
460000,0.090980,-0.746991,9.215282,-34.126263,-2.325858,-12.637908
464000,0.268151,-0.900220,9.504981,-33.240765,0.544371,-12.179893
468000,0.110133,-0.931344,9.634268,-32.630077,-0.539598,-11.630274
472000,-0.067038,-1.034295,9.871294,-30.691147,-3.928911,-11.431801
476000,-0.220267,-1.053449,10.144233,-28.782749,-6.707537,-10.744778
480000,-0.541090,-1.094150,10.453085,-25.103361,-10.677003,-10.408900
484000,-0.689530,-1.096544,10.438720,-19.164431,-18.066317,-10.347831
488000,-0.924162,-1.096544,10.479421,-18.431606,-23.760973,-9.004320
492000,-1.127669,-1.154005,10.228029,-14.355271,-28.341125,-7.553937
496000,-1.266533,-1.221043,9.775525,-9.378171,-30.967079,-4.897449
500000,-1.328782,-1.247379,9.373300,-6.233133,-30.218988,-1.248594
504000,-1.424550,-1.450886,8.935161,-4.355270,-31.180820,2.995681
508000,-1.316811,-1.484405,8.616732,-4.920156,-33.791508,7.087284
512000,-0.763750,-1.651999,8.331821,-6.034659,-31.928911,12.217054
516000,-0.289698,-1.733402,8.358158,-8.233133,-23.715172,18.003315
520000,-0.067038,-1.759738,8.243237,-9.622446,-21.119751,22.568201
524000,0.634463,-1.778892,7.955932,-12.217866,-12.585401,28.140718
528000,1.182736,-1.683124,7.771579,-15.317103,-4.234255,31.988049
532000,1.721431,-1.673547,7.522582,-18.248400,4.254295,36.110184
536000,2.159570,-1.604115,7.390901,-18.752216,12.345898,38.323925
540000,2.568978,-1.651999,7.460332,-18.462139,17.292461,39.346825
544000,2.889802,-1.642422,7.508216,-17.362904,23.582539,39.545300
548000,3.007117,-1.671153,7.220912,-16.767483,26.452768,38.751408
552000,3.021482,-1.769315,6.856994,-16.202599,27.155058,37.148354
556000,3.011906,-1.939303,6.402095,-15.851453,29.063456,35.774307
560000,2.908955,-2.312799,5.904101,-16.309467,29.826813,33.865910
564000,2.784456,-2.561796,5.494693,-18.065193,32.239029,32.705605
568000,2.379837,-2.841918,5.087678,-21.332369,26.574905,30.461330
572000,2.473210,-3.265691,4.537012,-24.019392,18.926050,28.064383
576000,3.181894,-3.833117,4.848258,-22.507942,26.025288,27.377361
580000,2.750938,-4.213795,4.537012,-23.271299,13.796279,22.247589
584000,3.100491,-4.726154,4.654328,-25.332369,14.941318,21.133085
588000,3.248932,-5.240908,5.003881,-29.485039,10.300096,17.759041
592000,3.399766,-5.588067,5.760449,-30.706413,6.697043,14.736138
596000,3.869030,-5.911284,6.272809,-28.889622,6.223761,11.148352
600000,4.453215,-6.335058,6.892907,-25.958323,15.414599,7.545299
604000,4.596867,-6.402095,6.777985,-22.736948,16.651241,0.537665
608000,4.556166,-6.464345,6.718130,-22.309467,15.475668,-7.660808
612000,4.699818,-6.531382,6.859388,-22.385803,12.926050,-17.111189
616000,4.642357,-6.713342,7.108385,-21.805651,10.025287,-28.256227
620000,4.692636,-6.703765,7.060501,-19.118628,14.727577,-39.004318
624000,3.842694,-6.809110,6.897695,-16.507942,16.712309,-49.187527
628000,3.375824,-7.019799,6.849811,-14.691148,17.826813,-58.943249
632000,2.518700,-7.311892,7.465121,-11.881988,24.376432,-66.286758
636000,1.628057,-7.730877,8.070854,-9.820919,31.246660,-72.210426
640000,0.301669,-8.216900,8.635885,-4.981225,42.513836,-75.233330
644000,-0.984017,-8.343793,8.973468,-0.950690,41.765743,-79.202789
648000,-2.070984,-8.686164,9.083601,2.743967,40.864983,-80.393631
652000,-3.320758,-9.016563,9.483433,4.072211,40.803913,-79.523399
656000,-4.426879,-9.354146,10.156203,4.392821,37.338264,-77.874550
660000,-5.109226,-9.648633,10.611102,7.369921,39.536736,-73.111191
664000,-6.083666,-9.504981,10.591949,11.553126,40.132156,-67.386002
668000,-6.572083,-9.612720,10.283096,15.690531,44.803913,-59.202793
672000,-7.984663,-9.425972,9.732430,19.110378,43.689407,-49.706608
676000,-9.038112,-9.078813,9.586384,15.278317,29.567272,-39.676075
680000,-9.066842,-9.363723,9.756371,15.156180,17.261929,-27.752411
684000,-9.332599,-8.571242,9.739613,14.560760,9.399332,-12.973785
688000,-8.303091,-8.475474,9.710882,14.621829,-0.325858,3.010948
692000,-7.599196,-8.061277,9.397242,19.369921,-8.280057,18.537666
696000,-6.203377,-7.556100,9.090784,22.285952,-16.478531,32.079651
700000,-4.608838,-6.744466,8.729259,24.316486,-24.463263,43.484230
704000,-3.043030,-6.052542,8.755595,24.438623,-31.272423,52.308659
708000,-1.204283,-5.262455,8.825027,22.942440,-35.760971,58.446064
712000,0.428562,-4.687847,9.402030,22.988241,-38.173187,62.354462
716000,1.570596,-4.314352,9.473856,24.331753,-49.058681,62.171253
720000,3.342306,-3.821146,9.220071,30.240150,-51.180820,59.560566
724000,4.683059,-3.323152,9.184157,32.896637,-45.837307,55.621635
728000,5.391742,-2.877831,8.678981,34.209614,-40.997616,49.484230
732000,5.973533,-2.492364,8.379706,34.392822,-33.486164,42.568199
736000,6.117185,-2.185906,7.970297,34.072212,-31.516699,34.140720
740000,6.466739,-2.296039,7.699753,35.110378,-32.554867,23.865910
744000,7.038953,-2.181118,7.493851,40.118011,-22.509064,13.316291
748000,6.452374,-1.898602,6.967127,37.537861,-15.944179,3.163620
752000,5.846641,-1.728614,6.485892,34.881371,-4.982347,-4.393632
756000,4.800375,-1.704672,6.191406,30.774502,-2.906011,-11.477602
760000,4.139575,-1.663970,5.793968,29.034044,-1.119751,-17.279127
764000,3.952827,-1.685518,5.537788,31.064577,10.468035,-20.210426
768000,2.748544,-1.663970,5.114015,29.598928,11.674142,-23.706610
772000,1.716643,-1.582567,4.469975,31.614197,12.239027,-25.324930
776000,0.778116,-1.482011,3.926491,31.751600,2.376432,-27.920349
780000,0.122104,-1.520318,3.648763,26.743967,-4.951812,-27.263861
784000,-0.447716,-1.572991,3.763685,23.003510,-11.776240,-24.989052
788000,-0.931344,-1.575385,3.823540,19.018776,-21.623568,-22.500502
792000,-1.010353,-1.580173,4.132392,11.782134,-29.913645,-19.630274
796000,-0.766145,-1.733402,4.939238,3.553127,-33.608299,-15.553938
800000,-0.885855,-1.857901,5.662287,-4.553743,-40.203720,-12.149358
804000,-0.332794,-1.994370,6.797139,-9.194965,-36.890743,-6.042487
808000,-0.028730,-2.044648,7.821857,-12.340003,-33.180820,-0.607373
812000,0.435745,-1.953669,8.221688,-14.981225,-29.928911,4.354459
816000,1.096544,-1.927332,8.602366,-16.935423,-24.860210,8.568199
820000,1.687912,-1.948880,8.532935,-17.469774,-16.280056,11.392627
824000,2.197877,-1.874660,8.635885,-17.088095,-6.814407,13.041482
828000,2.647987,-1.707066,8.827422,-16.599545,6.971852,14.507131
832000,2.511518,-1.697489,8.552089,-13.271300,10.010019,12.354459
836000,2.578555,-1.668759,8.688558,-9.683515,10.880248,10.415527
840000,2.707842,-1.503559,8.846576,-5.790385,-0.280056,4.354459
844000,2.911349,-1.726219,9.129091,-1.729316,-2.570133,0.614001
848000,2.851494,-1.812411,9.658210,6.255417,-1.913644,-3.706610
852000,2.219425,-1.821988,9.241618,12.377554,-3.669369,-7.080655
856000,1.872266,-1.675941,8.846576,16.988241,0.132157,-7.294395
860000,1.656788,-1.604115,8.336611,16.698166,0.284829,-8.637908
864000,1.364695,-1.584962,8.125920,15.217249,5.261929,-8.683709
868000,1.091756,-1.563414,7.785944,14.209615,7.597806,-7.615006
872000,0.926556,-1.450886,7.568071,13.690531,9.796279,-6.286762
876000,0.921768,-1.347936,7.395689,11.858470,12.666508,-4.882182
880000,1.022324,-1.309628,7.321469,8.835569,15.811546,-4.149358
884000,1.043872,-1.201889,7.144298,6.530226,18.956585,-3.874548
888000,0.914585,-1.074997,6.883330,3.721066,19.109257,-4.698976
892000,0.787692,-1.156399,6.607996,1.064577,19.536737,-4.637907
896000,0.670376,-1.204283,6.672640,-1.072828,23.765745,-3.615006
900000,0.368707,-1.134852,6.643910,-5.225499,20.834448,-4.179892
904000,0.339977,-1.218649,6.694188,-9.469774,16.788645,-4.668441
908000,0.299275,-1.364695,6.861782,-12.126264,13.735210,-5.660808
912000,0.076614,-1.498770,7.005434,-14.172065,7.338264,-6.836380
916000,-0.038307,-1.663970,7.278373,-15.057561,2.147424,-7.538671
920000,-0.148441,-1.783680,7.639898,-15.897256,-2.844942,-7.737144
924000,-0.445322,-1.977611,7.963115,-16.706415,-12.249522,-8.378366
928000,-0.545878,-2.272097,8.578424,-15.927789,-20.218988,-7.767678
932000,-0.318429,-2.334347,9.129091,-13.775117,-21.287691,-5.416533
936000,-0.210690,-2.456451,9.830592,-11.408706,-22.600668,-3.553938
940000,-0.162806,-2.466028,10.074800,-8.965958,-22.005247,-0.790579
944000,0.193930,-2.367866,10.168175,-6.782751,-19.974712,2.262856
948000,0.521936,-2.176329,10.055647,-5.744583,-18.157919,4.400261
952000,0.615310,-2.138022,10.077195,-4.034659,-18.799141,5.255223
956000,0.866701,-2.042254,10.010158,-2.691148,-20.509064,5.682703
960000,1.544260,-2.027889,9.828198,-1.240766,-17.165552,6.125452
964000,1.647211,-1.905785,9.495404,-0.981224,-13.455629,5.423162
968000,1.666364,-1.944092,9.212888,-0.614812,-13.364026,3.713238
972000,1.896208,-1.905785,9.220071,-0.660614,-12.157920,1.438429
976000,2.094927,-1.987187,9.224859,-0.721682,-7.089217,-0.622640
980000,1.924938,-2.037466,9.066842,-0.507942,-2.096850,-3.095922
984000,1.606509,-1.910573,8.973468,-0.065194,1.185592,-5.615006
988000,1.197101,-1.984793,8.667010,0.453890,4.010020,-7.263861
992000,0.876278,-1.900996,8.300697,1.797401,12.284829,-6.408899
996000,-0.021548,-1.798046,7.491457,-1.256034,5.658875,-8.225694
1000000,-0.134075,-1.752556,7.029376,-2.172064,3.979486,-8.240961
1004000,-0.246603,-1.740585,6.907272,-2.904888,1.628341,-8.164625
1008000,-0.569820,-1.807622,6.797139,-4.492675,-4.829675,-8.210426
1012000,-0.790087,-1.867477,6.945579,-6.614813,-11.486164,-7.416533
1016000,-0.742203,-1.977611,7.319075,-8.049927,-16.661736,-5.767678
1020000,-0.414197,-2.025495,7.771579,-9.332370,-19.562500,-3.996686
1024000,-0.088585,-2.044648,8.228871,-10.950690,-20.356392,-2.317297
1028000,0.258574,-1.980005,8.418014,-12.782752,-19.867844,-0.805846
1032000,0.665588,-2.104503,8.868123,-13.652980,-17.516699,0.400261
1036000,0.998382,-2.126051,9.176975,-13.607179,-14.310591,1.026215
1040000,1.218649,-2.130840,9.301474,-13.378171,-12.402194,0.843009
1044000,1.312023,-2.291251,9.516952,-13.347636,-11.699904,-0.057755
1048000,1.254562,-2.348712,10.158598,-12.645347,-13.577766,-1.523403
1052000,1.350330,-2.585738,10.924743,-9.576645,-13.196087,-2.057755
1056000,1.467646,-2.736573,11.362882,-4.813286,-7.257155,-1.508136
1060000,1.359907,-2.853889,11.331757,-0.141530,-6.890743,-2.775312
1064000,1.647211,-2.779668,11.195287,5.415722,1.200860,-2.561571
1068000,1.412579,-2.712631,10.785878,8.743966,5.139791,-3.813480
1072000,1.173159,-2.640805,10.194510,11.751600,7.109257,-4.775311
1076000,0.916979,-2.645593,9.765948,13.583661,5.674142,-5.905083
1080000,0.624887,-2.604892,9.248801,14.682898,6.040555,-6.439434
1084000,0.557849,-2.425326,8.707711,15.217249,10.132157,-6.821113
1088000,0.246603,-2.360683,8.078036,14.194347,9.475668,-7.508136
1092000,0.110133,-2.142811,7.706935,12.499691,10.803913,-7.584472
1096000,-0.332794,-1.936909,7.302315,8.896638,10.758111,-7.508136
1100000,-0.502782,-2.063802,7.010222,7.049310,9.521470,-6.653174
1104000,-0.758962,-1.939303,6.828263,7.995874,8.116890,-4.714243
1108000,-0.842759,-1.886631,6.493075,6.850837,5.933684,-2.469968
1112000,-0.727837,-1.860295,6.581660,4.331753,5.384066,-0.240961
1116000,-0.543484,-1.881842,6.799533,0.728699,5.185593,2.003314
1120000,-0.299275,-1.750161,7.168240,-2.370538,4.361165,3.759039
1124000,-0.181959,-1.833959,7.453150,-5.637713,-4.386927,2.827742
1128000,0.694318,-1.970428,8.286332,-4.935423,2.574905,5.056749
1132000,0.658405,-2.044648,8.765172,-5.500309,4.071089,5.423162
1136000,0.675165,-1.999158,8.908825,-6.278934,5.109257,5.591101
1140000,0.907402,-2.003947,9.105149,-7.240767,3.307730,4.843009
1144000,1.060631,-2.082955,9.442732,-8.477407,6.147425,4.552933
1148000,1.024718,-2.171541,9.634268,-7.851454,10.177958,4.155986
1152000,0.809240,-2.128445,9.466674,-7.118629,12.361164,4.476597
1156000,0.914585,-2.020706,9.394848,-5.744583,15.521470,4.461329
1160000,0.766145,-1.929727,9.234436,-6.126263,16.422234,3.743773
1164000,0.553061,-2.049437,8.961497,-5.088095,13.597806,2.293390
1168000,0.593762,-2.051831,8.781932,-3.759850,12.223760,1.010948
1172000,0.471658,-2.008735,8.607155,-3.988858,9.948951,-0.317297
1176000,0.423774,-2.027889,8.530540,-4.492675,6.330631,-1.401266
1180000,0.356736,-2.027889,8.559271,-4.843820,2.987119,-2.760045
1184000,0.471658,-2.188300,8.772355,-3.943056,-0.218988,-3.813480
1188000,0.497994,-2.288857,8.990228,-2.355270,-1.470896,-4.882182
1192000,0.339977,-2.303222,8.911219,-0.920156,-1.089217,-5.340197
1196000,0.208296,-2.286463,8.786720,-0.950690,0.040554,-5.676075
1200000,0.069432,-2.205060,8.576031,-1.973591,-0.417461,-5.782945
1204000,-0.177171,-2.178724,8.492233,-3.576644,-4.310591,-5.752411
1208000,-0.191536,-2.197877,8.269572,-2.110996,-9.776240,-6.164625
1212000,0.035913,-2.252944,8.487445,2.194348,-9.379293,-4.851647
1216000,-0.011971,-2.130840,8.554482,4.316485,-6.005247,-3.584472
1220000,0.107739,-2.042254,8.465898,3.217249,-2.829675,-1.584472
1224000,0.289698,-1.984793,8.626308,0.835569,7.384066,1.911711
1228000,0.052672,-1.910573,8.619126,-1.851454,9.170325,3.301024
1232000,0.488417,-1.874660,8.504205,-5.164431,14.697042,5.713238
1236000,0.804452,-1.819593,8.647857,-5.011759,21.628340,6.614001
1240000,0.809240,-1.726219,8.518570,-5.714049,23.399332,6.781940
1244000,0.885855,-1.788469,8.559271,-5.469774,23.933683,5.774307
1248000,0.881066,-1.862689,8.401254,-5.652981,20.635973,3.789574
1252000,0.948104,-1.898602,8.355764,-4.767485,17.322996,1.178887
1256000,0.914585,-1.977611,8.312668,-3.469774,13.582539,-1.782945
1260000,0.639252,-2.066196,8.279149,-2.156797,9.842080,-4.607373
1264000,0.280122,-2.255338,8.262390,-0.660614,5.872615,-6.637907
1268000,-0.105345,-2.293645,8.279149,0.377554,1.399333,-7.966151
1272000,-0.418985,-2.281674,8.295909,0.789768,-6.234255,-9.477602
1276000,-0.605733,-2.504335,8.135497,2.576027,-9.577766,-9.065389
1280000,-0.943315,-2.511518,8.374918,2.835569,-16.310591,-8.836381
1284000,-1.091756,-2.576161,8.492233,3.003508,-22.615934,-7.615006
1288000,-0.926556,-2.588132,8.712500,2.988241,-27.119751,-5.569205
1292000,-0.644040,-2.499547,9.052477,2.469157,-26.539598,-2.744777
1296000,-0.289698,-2.449268,9.112331,1.278317,-24.707539,0.339192
1300000,0.177171,-2.358289,9.284714,0.301218,-19.852575,2.919345
1304000,0.514753,-2.219425,9.636662,0.118012,-13.577766,4.934612
1308000,0.809240,-2.200271,9.710882,-0.782751,-12.600668,5.560566
1312000,1.280898,-2.183512,9.821015,-0.355270,-8.860209,5.423162
1316000,1.570596,-2.118869,9.809045,1.171447,-4.188453,4.675070
1320000,1.568202,-2.128445,9.813833,3.675264,-0.142652,2.949879
1324000,1.675941,-2.106898,9.722853,6.667630,4.666509,1.148352
1328000,1.460463,-2.128445,9.392453,8.972974,8.849714,-0.698976
1332000,0.957681,-2.166753,8.827422,10.102745,9.368798,-2.378365
1336000,0.581791,-2.126051,8.444349,10.362287,11.032920,-2.882182
1340000,0.299275,-2.121263,8.303091,9.980608,14.284829,-1.935617
1344000,-0.031125,-2.061408,7.824251,8.896638,14.300096,-1.553938
1348000,-0.055067,-2.133234,7.556100,6.011142,15.155058,-0.882182
1352000,-0.220267,-2.018312,7.419631,3.553127,12.437500,-1.279129
1356000,-0.459687,-2.063802,7.163452,1.430989,10.101623,-0.592106
1360000,-0.737414,-1.996764,7.422025,1.217249,8.926050,0.812474
1364000,-0.864307,-2.011129,7.455544,0.469157,2.269562,1.575833
1368000,-0.701501,-2.054225,7.553706,-0.492675,-7.806774,1.346826
1372000,-0.124498,-2.032677,8.037335,-0.889621,-8.356393,2.858276
1376000,0.081403,-1.996764,8.334216,-1.133896,-6.234255,3.820108
1380000,0.215478,-2.042254,8.707711,-1.485041,-2.051049,5.239955
1384000,0.148441,-2.020706,8.729259,-0.798018,-3.135018,5.652169
1388000,0.407014,-2.126051,8.961497,-0.752217,-2.661736,6.705605
1392000,0.481235,-2.080561,9.445126,0.316485,-4.447995,6.614001
1396000,0.699107,-2.106898,9.694122,2.163814,-7.272423,5.926979
1400000,0.988805,-2.094927,9.813833,4.499691,-8.112118,5.163620
1404000,1.029507,-2.133234,9.777920,5.721066,-10.280057,3.743773
1408000,1.233014,-2.104503,9.591172,6.988241,-10.402194,2.186520
1412000,1.273715,-2.030283,9.330204,8.072210,-8.631202,0.934612
1416000,1.323994,-2.090138,9.318233,9.156180,-6.447995,-0.057755
1420000,1.280898,-1.951274,9.045294,10.652364,-4.280056,-0.989052
1424000,1.192312,-1.893813,8.710106,11.934806,-2.585400,-2.821113
1428000,1.048660,-1.826776,8.190564,13.247783,-1.989980,-4.729510
1432000,0.782904,-1.798046,7.963115,13.904271,-1.669369,-6.424167
1436000,0.354342,-1.845930,7.654263,13.492058,-4.753339,-8.195159
1440000,0.026336,-1.884237,7.386112,12.484425,-5.638835,-8.408899
1444000,-0.196325,-1.802834,7.340622,10.194348,-9.012881,-8.195159
1448000,-0.272939,-1.865083,7.314286,8.728700,-9.379293,-7.172258
1452000,-0.342371,-1.845930,7.393295,7.415722,-7.623568,-5.218060
1456000,-0.328006,-1.826776,7.252037,4.911905,-7.760972,-3.553938
1460000,-0.292093,-1.766921,7.402872,1.598928,-6.203721,-1.721877
1464000,-0.165200,-1.735796,7.354988,-1.775118,-7.608301,-1.218060
1468000,0.114922,-1.707066,7.410054,-4.492675,-5.638835,-0.317297
1472000,0.124498,-1.714248,7.635109,-7.164431,-3.928911,0.781940
1476000,0.270545,-1.702277,8.034941,-8.645347,-1.867843,1.957513
1480000,0.395043,-1.781286,8.281544,-9.088095,0.040554,2.965146
1484000,0.466869,-1.821988,8.638280,-9.240767,0.758111,3.911711
1488000,0.596156,-1.862689,9.030929,-8.920156,0.681776,4.736139
1492000,0.761356,-1.953669,9.260772,-7.454507,1.292463,5.255223
1496000,1.170765,-1.881842,9.442732,-4.935423,4.376432,5.804841
1500000,1.199495,-1.714248,9.265560,-3.423972,5.445135,4.965147
1504000,1.388637,-1.697489,8.868123,-2.294202,9.109256,4.507131
1508000,1.259350,-1.740585,8.808268,-1.958324,10.697042,3.224688
1512000,1.144428,-1.731008,8.343793,-1.362904,7.414600,1.117818
1516000,1.247379,-1.731008,8.226477,-0.736950,6.254295,-0.958518
1520000,0.957681,-1.826776,8.133103,-0.889621,1.155058,-4.164625
1524000,0.763750,-1.920150,8.135497,-0.599545,-3.257156,-6.424167
1528000,0.402226,-2.013524,8.298303,0.041676,-7.333491,-7.905083
1532000,0.191536,-2.111686,8.226477,0.255417,-10.722805,-8.775312
1536000,0.074220,-2.190695,8.116343,0.408088,-12.218988,-8.424167
1540000,0.000000,-2.257732,8.343793,0.255417,-12.341125,-8.057755
1544000,-0.153229,-2.161964,8.161834,0.484424,-10.280057,-7.065388
1548000,-0.215478,-2.185906,8.070854,0.957707,-7.104484,-5.553937
1552000,-0.270545,-2.183512,8.087613,0.957707,1.002386,-2.073022
1556000,-0.610521,-1.991976,7.826645,-2.416339,-3.043415,-0.760045
1560000,-0.567426,-2.001553,7.527370,-2.553744,-5.745705,0.904078
1564000,-0.148441,-1.968034,7.824251,-4.660614,-3.867843,3.835375
1568000,0.050278,-1.891419,8.128315,-5.897255,-0.249522,6.400261
1572000,0.476446,-1.826776,8.501810,-6.706415,-0.341125,7.377360
1576000,0.897826,-1.817199,8.760384,-7.179698,0.483302,8.339191
1580000,1.249773,-1.795651,9.119514,-6.660614,1.475669,7.865910
1584000,1.539472,-1.798046,9.234436,-5.637713,1.857348,6.446063
1588000,1.659182,-1.853112,9.373300,-4.462141,2.941318,4.308658
1592000,1.429338,-1.989582,9.368511,-3.652980,2.712310,2.598734
1596000,1.302446,-2.056619,9.423578,-1.775118,3.032921,1.346826
1600000,1.113304,-2.133234,9.607931,0.499691,3.674142,0.629268
1604000,0.816423,-2.279280,9.639056,2.927173,4.071089,0.125452
1608000,0.699107,-2.382231,9.526528,5.797401,6.605440,0.064383
1612000,0.337582,-2.367866,9.227253,7.995874,8.345898,0.659803
1616000,0.217872,-2.281674,8.884883,8.652364,10.361164,1.163620
1620000,0.098162,-2.207454,8.444349,8.041677,12.803913,1.881177
1624000,0.064643,-2.061408,8.082825,7.034043,13.704676,2.736139
1628000,-0.062249,-2.066196,7.742848,5.614195,11.567271,3.148352
1632000,-0.162806,-1.893813,7.632715,4.026409,7.292463,3.423162
1636000,-0.057461,-1.843535,7.958326,2.163814,1.994753,3.331558
1640000,0.184354,-1.879448,8.049306,1.629462,-0.860209,3.438429
1644000,0.313640,-1.843535,8.216900,1.354653,-0.936545,4.003314
1648000,0.318429,-1.783680,8.015787,0.866104,0.574905,4.720871
1652000,0.653617,-1.754950,7.958326,-0.874354,0.559638,4.598734
1656000,0.830788,-1.714248,8.307879,-3.164430,7.109257,5.133085
1660000,0.756568,-1.757344,8.391677,-4.874354,8.941318,5.117818
1664000,0.735020,-1.776498,8.597578,-4.187331,7.765746,4.629269
1668000,0.663194,-1.738190,8.662222,-4.263667,3.643608,3.133085
1672000,1.300052,-1.800440,9.129091,-1.637713,14.666508,4.491864
1676000,0.708684,-1.783680,9.033323,-2.309469,9.155058,2.568200
1680000,0.878672,-1.841141,8.932767,-1.744583,8.147424,1.468963
1684000,0.907402,-1.838747,9.002198,-2.370538,5.948951,-0.073022
1688000,0.790087,-1.927332,9.102755,-2.462140,5.643608,-0.622640
1692000,0.694318,-1.970428,9.129091,-1.851454,3.429867,-1.889816
1696000,0.622492,-1.941698,8.949526,-1.240766,1.872615,-2.653174
1700000,0.603339,-2.015918,8.872911,-0.706415,-0.890743,-3.798213
1704000,0.392649,-2.042254,8.801085,0.026409,-3.944179,-4.943251
1708000,0.339977,-2.097321,8.882488,0.469157,-7.455629,-5.156991
1712000,0.263362,-2.248155,8.983045,0.820302,-8.417461,-4.836380
1716000,0.270545,-2.322376,8.899248,0.881371,-7.287690,-3.553938
1720000,0.445322,-2.358289,9.066842,1.079844,-4.432728,-2.103556
1724000,0.598550,-2.298434,8.959103,1.904272,-0.325858,-1.095922
1728000,0.718261,-2.219425,8.710106,2.820302,1.536737,-0.286762
1732000,0.787692,-2.066196,8.401254,2.728699,1.475669,-0.866915
1736000,0.847547,-1.881842,8.240842,2.255417,-0.112117,-2.057755
1740000,0.888249,-1.872266,8.216900,2.331753,-1.272423,-2.958518
1744000,0.883460,-1.936909,8.149862,2.606562,-1.287690,-4.240961
1748000,0.770933,-1.833959,8.049306,1.965340,-0.646469,-4.821113
1752000,0.586579,-1.829170,8.106767,1.430989,0.559638,-5.248594
1756000,0.428562,-1.963245,8.025364,0.759233,2.025287,-5.538671
1760000,0.260968,-1.946486,8.073248,-0.126262,2.758112,-5.538671
1764000,-0.038307,-2.020706,8.118738,-1.347636,2.086356,-5.782945
1768000,-0.237026,-2.090138,8.173804,-1.958324,0.147424,-5.111189
1772000,-0.332794,-2.135628,8.228871,-2.645346,-1.760972,-4.546304
1776000,-0.359130,-2.205060,8.386889,-3.088094,-3.241888,-3.584472
1780000,-0.270545,-2.245761,8.487445,-3.790385,-4.356392,-2.531037
1784000,-0.181959,-2.269703,8.604761,-3.805652,-4.692270,-1.721877
1788000,-0.050278,-2.226608,8.580819,-4.110995,-5.302957,-0.439434
1792000,0.143652,-2.248155,8.750807,-4.599545,-4.890743,0.278123
1796000,0.270545,-2.296039,8.851364,-4.630079,-4.417461,1.362093
1800000,0.330400,-2.233790,9.057265,-4.233133,-4.127385,2.278123
1804000,0.483629,-2.209848,9.026140,-3.500308,-3.058682,2.934612
1808000,0.711078,-2.250550,9.138668,-2.446873,-1.867843,3.163620
1812000,0.972046,-2.114080,9.021352,-1.256034,-0.753339,2.659803
1816000,0.962469,-2.114080,8.932767,0.240150,-0.753339,1.865910
1820000,0.931344,-2.169147,9.160215,2.835569,-0.951812,0.843009
1824000,0.928950,-2.068590,8.985439,4.591295,-1.440362,-0.515770
1828000,0.833182,-2.008735,8.863335,5.843203,-2.509064,-1.508136
1832000,0.490811,-2.042254,8.650250,6.392821,-4.280056,-2.057755
1836000,0.313640,-2.070984,8.458714,6.469157,-4.951812,-2.286762
1840000,0.023942,-2.011129,8.382100,5.950073,-5.150285,-1.416533
1844000,-0.031125,-2.008735,8.343793,4.850837,-6.066316,-0.653174
1848000,0.052672,-2.011129,8.425196,3.659997,-4.173186,0.797207
1852000,0.095768,-2.066196,8.580819,2.667631,-3.272423,1.942245
1856000,0.167594,-2.027889,8.631097,2.285951,-2.447995,3.148352
1860000,0.435745,-2.082955,8.590396,1.980608,-1.470896,3.468963
1864000,0.502782,-2.049437,8.499416,1.934806,-0.234255,3.545299
1868000,0.536301,-2.054225,8.453926,1.583661,0.620707,3.301024
1872000,0.526724,-2.121263,8.319851,1.186714,1.170325,3.392627
1876000,0.474052,-2.106898,8.317456,0.530226,1.261928,3.209421
1880000,0.486023,-2.082955,8.477868,0.408088,1.277195,3.484231
1884000,0.541090,-2.099715,8.473080,0.224882,1.842081,3.789574
1888000,0.572214,-2.051831,8.396465,0.209615,3.338264,4.064383
1892000,0.603339,-2.023100,8.255207,-0.126262,4.651241,4.781940
1896000,0.632069,-2.025495,8.188169,-0.416339,5.903150,5.407895
1900000,0.715866,-1.944092,8.173804,-1.423972,7.261929,5.759039
1904000,0.761356,-1.917756,7.984663,-2.202598,7.628340,5.774307
1908000,0.814029,-1.869871,8.022970,-2.950690,6.742845,5.346826
1912000,0.823605,-1.754950,8.066066,-3.393438,5.261929,4.766673
1916000,0.888249,-1.798046,8.058883,-4.187331,3.368799,4.339192
1920000,0.962469,-1.764527,8.101978,-4.401072,2.208493,3.087284
1924000,0.854730,-1.824382,8.188169,-4.752217,0.635974,2.262856
1928000,0.598550,-1.745373,8.322245,-4.569011,-2.860209,1.102551
1932000,0.624887,-1.994370,8.382100,-3.729316,-4.478529,1.148352
1936000,0.648829,-1.951274,8.655039,-3.378171,-4.753339,0.843009
1940000,0.615310,-1.963245,8.611943,-2.721682,-7.012881,0.415528
1944000,0.852336,-2.094927,8.815451,-2.080461,-5.699903,0.354459
1948000,0.773327,-2.039860,8.789114,-1.240766,-4.463263,0.598734
1952000,0.720655,-2.231396,9.081207,-0.462140,-3.822041,0.583467
1956000,0.665588,-2.226608,9.162610,0.667630,-2.646469,1.163620
1960000,0.548272,-2.308010,9.126697,1.812669,-1.654102,1.606368
1964000,0.581791,-2.257732,9.088389,2.530226,-0.463263,2.507131
1968000,0.581791,-2.269703,8.848969,3.110379,0.498570,3.178887
1972000,0.574608,-2.269703,8.858546,2.850837,2.345898,3.804841
1976000,0.596156,-2.351106,8.643068,2.896638,1.246661,3.499497
1980000,0.715866,-2.358289,8.829816,2.667631,1.521470,3.911711
1984000,0.768539,-2.329558,8.757990,3.263050,3.490936,4.232322
1988000,0.713472,-2.315193,8.643068,4.102745,5.765745,4.766673
1992000,0.665588,-2.197877,8.322245,5.079844,9.399332,5.606368
1996000,0.644040,-2.104503,7.979874,5.095111,13.231394,6.415528
