time_us,ax,ay,az,gx,gy,gz
0,-0.371101,-1.465251,8.367735,-3.851454,2.483302,0.003314
4000,-0.442927,-1.546654,8.379706,-4.355270,2.223760,0.110184
8000,-0.445322,-1.601721,8.616732,-4.599545,2.284829,0.339192
12000,-0.359130,-1.529895,8.645462,-4.920156,2.727577,0.446062
16000,-0.481235,-1.584962,8.712500,-4.645347,3.093989,0.949879
20000,-0.509965,-1.563414,8.702923,-4.401072,3.628341,1.087284
24000,-0.454898,-1.587356,8.743625,-4.049927,3.582539,0.995681
28000,-0.459687,-1.549049,8.827422,-3.485041,2.391699,0.843009
32000,-0.459687,-1.587356,8.870518,-2.889621,0.727577,0.583467
36000,-0.466869,-1.537078,8.834604,-2.095728,-0.661736,0.369726
40000,-0.462081,-1.489193,8.748413,-1.393438,-1.669369,0.308658
44000,-0.332794,-1.551443,8.738836,-1.301835,-2.188453,0.247589
48000,-0.292093,-1.460463,8.724471,-1.301835,-1.699904,-0.317297
52000,-0.177171,-1.462857,8.705317,-1.652980,-1.440362,-0.576838
56000,-0.316035,-1.513135,8.607155,-1.393438,-1.883110,-1.324930
60000,-0.368707,-1.414973,8.604761,-1.332370,-2.982346,-1.706609
64000,-0.481235,-1.474828,8.518570,-1.378171,-4.493797,-2.164625
68000,-0.562637,-1.527501,8.530540,-1.805652,-5.745705,-1.782945
72000,-0.464475,-1.570596,8.621520,-1.820919,-5.837308,-1.996686
76000,-0.569820,-1.599327,8.614338,-2.065194,-5.073949,-1.538671
80000,-0.531513,-1.644817,8.623915,-2.416339,-4.264789,-1.248594
84000,-0.414197,-1.649605,8.741230,-2.187331,-2.218988,-0.622640
88000,-0.385466,-1.656788,8.997410,-1.362904,-0.341125,-0.118823
92000,-0.505177,-1.704672,8.858546,-1.790385,-0.127385,0.690337
96000,-0.471658,-1.707066,8.889671,-1.820919,-1.180820,0.659803
100000,-0.488417,-1.695095,8.868123,-1.011759,-0.280056,1.377360
104000,-0.586579,-1.704672,8.786720,-0.752217,0.055821,1.942245
108000,-0.483629,-1.685518,8.595184,-0.416339,0.254295,2.537665
112000,-0.512359,-1.668759,8.542512,-0.294202,0.330631,3.255223
116000,-0.397437,-1.742979,8.463503,-0.660614,1.231394,3.682703
120000,-0.227449,-1.685518,8.444349,-1.317102,2.345898,4.171253
124000,-0.215478,-1.738190,8.355764,-2.324736,2.864982,4.125452
128000,-0.014365,-1.699883,8.544906,-3.027026,3.781013,4.049116
132000,-0.172383,-1.774103,8.494628,-3.378171,4.132157,3.621635
136000,-0.203507,-1.783680,8.705317,-2.981224,3.643608,3.316291
140000,-0.162806,-1.762132,8.717288,-2.034660,2.162692,2.965146
144000,-0.280122,-1.786075,8.798691,-1.011759,1.704676,2.812474
148000,-0.347159,-1.805228,8.757990,0.056943,1.979486,2.629268
152000,-0.433351,-1.769315,8.786720,0.377554,1.460402,3.346826
156000,-0.366313,-1.850718,8.834604,0.759233,2.300096,3.499497
160000,-0.318429,-1.819593,8.662222,1.782134,3.597806,3.896444
164000,-0.162806,-1.742979,8.568848,2.118012,4.315363,3.606368
168000,-0.196325,-1.601721,8.568848,1.812669,4.590173,3.514765
172000,-0.222661,-1.661576,8.616732,1.675264,4.406967,3.255223
176000,-0.217872,-1.534683,8.616732,1.644730,4.681776,3.133085
180000,-0.256180,-1.422156,8.463503,1.171447,4.544371,2.919345
184000,-0.229843,-1.412579,8.406042,1.171447,4.635974,2.690337
188000,-0.222661,-1.450886,8.386889,0.957707,4.666509,2.843009
192000,-0.169988,-1.441309,8.315063,0.698165,5.032921,2.705604
196000,-0.136469,-1.419762,8.183381,-0.156797,4.788646,2.415528
200000,-0.124498,-1.412579,8.042124,-1.118629,4.788646,1.942245
204000,-0.131681,-1.431733,8.097190,-2.034660,4.300097,1.530032
208000,-0.172383,-1.381454,8.188169,-2.614812,3.643608,0.843009
212000,-0.136469,-1.316811,8.315063,-2.935423,2.239028,0.384994
216000,-0.169988,-1.357512,8.334216,-2.935423,1.017653,0.033849
220000,-0.196325,-1.345541,8.350976,-2.996492,0.590173,-0.637907
224000,-0.361524,-1.508347,8.432379,-3.561377,-0.509064,-0.592106
228000,-0.509965,-1.505953,8.508993,-4.004126,-1.470896,-0.210426
232000,-0.514753,-1.572991,8.750807,-4.614813,-1.577766,0.568200
236000,-0.478840,-1.534683,8.686164,-4.843820,-1.547232,1.453696
240000,-0.373495,-1.484405,8.813056,-5.011759,-1.058682,2.033848
244000,-0.196325,-1.549049,8.805874,-4.843820,-0.218988,2.491864
248000,-0.107739,-1.544260,8.959103,-4.446874,0.132157,2.369726
252000,0.160412,-1.695095,8.939949,-2.828552,1.552005,1.545299
256000,0.055067,-1.628057,8.975863,-1.439240,4.376432,0.965146
260000,-0.153229,-1.625663,9.026140,-1.057560,5.506203,0.644536
264000,-0.248997,-1.592144,8.892065,-0.630080,6.239028,0.690337
268000,-0.363919,-1.675941,8.817844,-0.462140,6.422234,0.858276
272000,-0.385466,-1.675941,8.796297,-0.385804,5.643608,1.239955
276000,-0.476446,-1.699883,8.647857,-0.492675,4.803913,1.331558
280000,-0.440533,-1.683124,8.710106,-0.584278,3.857348,1.728505
284000,-0.342371,-1.647211,8.714894,-0.507942,3.322997,1.331558
288000,-0.196325,-1.707066,8.760384,0.041676,5.765745,1.743772
292000,-0.275333,-1.632846,8.609550,0.530226,2.849715,0.171253
296000,-0.246603,-1.671153,8.465898,1.156180,2.651241,0.064383
300000,-0.282516,-1.618480,8.470686,0.621829,1.368798,-0.683709
304000,-0.392649,-1.623269,8.315063,0.805035,0.391699,-0.775312
308000,-0.440533,-1.625663,8.434772,0.118012,-1.241889,-1.248594
312000,-0.509965,-1.592144,8.465898,-0.462140,-2.386927,-1.202793
316000,-0.416591,-1.551443,8.523358,-0.431606,-3.562499,-1.447067
320000,-0.474052,-1.570596,8.599973,-0.110996,-4.432728,-1.324930
324000,-0.493206,-1.630451,8.621520,0.163814,-4.875476,-1.492869
328000,-0.478840,-1.651999,8.588001,0.331753,-5.196087,-1.370732
332000,-0.567426,-1.589750,8.602366,0.576027,-4.264789,-0.714243
336000,-0.720655,-1.637634,8.547300,0.072211,-5.531965,-0.714243
340000,-0.636858,-1.616086,8.540117,0.499691,-4.890743,-0.073022
344000,-0.543484,-1.637634,8.427590,0.576027,-3.302957,0.125452
348000,-0.641646,-1.553837,8.588001,0.118012,-1.669369,0.537665
352000,-0.502782,-1.596933,8.556877,-0.324736,-0.707537,0.965146
356000,-0.531513,-1.584962,8.559271,-0.553744,-0.127385,1.209421
360000,-0.435745,-1.589750,8.595184,-0.431606,-0.570133,1.362093
364000,-0.502782,-1.623269,8.655039,0.240150,-0.570133,1.407894
368000,-0.411803,-1.613692,8.678981,0.927172,-0.722805,1.239955
372000,-0.397437,-1.589750,8.602366,1.537859,-0.906011,1.087284
376000,-0.447716,-1.582567,8.415619,1.782134,-1.302957,1.026215
380000,-0.483629,-1.517924,8.413225,1.736333,-2.600667,0.995681
384000,-0.495600,-1.541866,8.305486,1.293585,-3.486163,0.843009
388000,-0.237026,-1.491588,8.396465,1.598928,-2.646469,0.980413
392000,-0.339977,-1.544260,8.329428,1.293585,-3.852576,0.568200
396000,-0.323217,-1.513135,8.439561,0.499691,-4.982347,0.186520
400000,-0.332794,-1.501164,8.475474,0.148546,-5.196087,0.217055
404000,-0.289698,-1.577779,8.530540,-0.004125,-4.921278,0.049116
408000,-0.366313,-1.568202,8.537724,-0.278934,-4.738071,0.217055
412000,-0.282516,-1.611298,8.504205,-0.553744,-4.127385,0.461329
416000,-0.311246,-1.616086,8.350976,-0.950690,-3.898377,0.781940
420000,-0.313640,-1.656788,8.475474,-1.622446,-4.005247,0.766673
424000,-0.316035,-1.697489,8.609550,-2.095728,-4.310591,0.812474
428000,-0.282516,-1.707066,8.640674,-1.973591,-4.447995,0.323925
432000,-0.318429,-1.733402,8.611943,-2.034660,-4.936545,0.171253
436000,-0.251391,-1.709460,8.722076,-1.820919,-4.967079,-0.027220
440000,-0.198719,-1.769315,8.841787,-1.439240,-4.325858,-0.103556
444000,-0.210690,-1.778892,8.896853,-0.859087,-3.348759,-0.073022
448000,-0.237026,-1.750161,8.834604,-0.416339,-3.058682,0.094917
452000,-0.337582,-1.716643,8.781932,-0.507942,-3.012881,0.369726
456000,-0.342371,-1.745373,8.865729,-0.523209,-3.348759,0.858276
460000,-0.313640,-1.692701,8.870518,-0.645346,-3.287690,1.301024
464000,-0.284910,-1.673547,8.777143,-0.645346,-3.180820,1.530032
468000,-0.304064,-1.656788,8.667010,-0.736950,-3.211354,1.713238
472000,-0.177171,-1.611298,8.750807,-0.584278,-3.348759,1.881177
476000,-0.146046,-1.637634,8.762778,-0.019392,-2.936545,1.499497
480000,0.014365,-1.683124,8.714894,0.133279,-2.814408,1.041482
484000,-0.031125,-1.596933,8.717288,0.331753,-2.738072,0.262856
488000,-0.083797,-1.601721,8.631097,0.530226,-2.951812,-0.408900
492000,-0.100556,-1.685518,8.640674,1.140913,-3.318224,-0.866915
496000,-0.138864,-1.611298,8.616732,0.896638,-3.867843,-1.355464
500000,-0.050278,-1.702277,8.693346,1.400455,-4.081583,-1.752411
504000,0.000000,-1.651999,8.956709,1.675264,-2.524331,-1.966151
508000,-0.098162,-1.649605,9.006987,2.270684,-1.028148,-2.195159
512000,-0.191536,-1.714248,8.980651,3.247783,1.032921,-1.767678
516000,-0.067038,-1.726219,8.889671,4.301219,4.666509,-1.263861
520000,-0.222661,-1.661576,8.664616,3.446256,3.872615,-1.874548
524000,-0.184354,-1.594538,8.542512,3.263050,5.643608,-1.492869
528000,-0.198719,-1.601721,8.537724,2.896638,6.147425,-1.324930
532000,-0.289698,-1.589750,8.525752,3.064577,6.101623,-1.202793
536000,-0.320823,-1.561020,8.341399,2.621829,5.704677,-1.034854
540000,-0.409408,-1.546654,8.379706,2.056943,5.490936,-0.546304
544000,-0.306458,-1.434127,8.350976,1.797401,5.093989,-0.347831
548000,-0.430956,-1.517924,8.413225,1.232516,4.437501,-0.225693
552000,-0.411803,-1.508347,8.315063,0.835569,3.338264,0.293391
556000,-0.368707,-1.513135,8.291121,0.301218,2.742844,0.079650
560000,-0.356736,-1.513135,8.152257,-0.049927,2.071089,0.125452
564000,-0.359130,-1.582567,8.283937,-0.187331,1.261928,-0.164625
568000,-0.421380,-1.608904,8.303091,-0.752217,0.391699,-0.073022
572000,-0.397437,-1.587356,8.437167,-0.416339,-0.371659,0.033849
576000,-0.428562,-1.575385,8.499416,-0.278934,-1.150285,0.018581
580000,-0.430956,-1.587356,8.494628,-0.446873,-1.409827,0.247589
584000,-0.368707,-1.575385,8.552089,-0.202598,-1.394560,0.980413
588000,-0.332794,-1.599327,8.339005,-0.614812,-0.692270,1.026215
592000,-0.332794,-1.503559,8.327033,-1.317102,-0.173186,1.285757
596000,-0.296881,-1.465251,8.310274,-2.233133,0.193226,1.575833
600000,-0.174777,-1.501164,8.353370,-2.691148,0.223760,1.530032
604000,-0.246603,-1.584962,8.336611,-2.889621,-0.478530,1.316291
608000,-0.174777,-1.534683,8.595184,-3.027026,-1.043415,0.690337
612000,-0.284910,-1.568202,8.513782,-2.996492,-1.501431,0.552933
616000,-0.296881,-1.587356,8.671799,-2.324736,-1.623568,0.003314
620000,-0.368707,-1.561020,8.619126,-1.836186,-2.173186,-0.179892
624000,-0.524330,-1.637634,8.585608,-1.729316,-3.944179,-0.424167
628000,-0.430956,-1.685518,8.669404,-1.698782,-4.936545,-0.622640
632000,-0.500388,-1.570596,8.676587,-0.523209,-5.531965,-0.760045
636000,-0.603339,-1.668759,8.803479,0.438623,-6.921278,-0.805846
640000,-0.490811,-1.668759,8.746018,1.232516,-6.829675,-1.309663
644000,-0.454898,-1.690306,8.700529,1.553127,-5.669369,-0.927984
648000,-0.440533,-1.628057,8.702923,1.492058,-2.890743,-0.576838
652000,-0.445322,-1.640028,8.655039,1.568394,-0.890743,-0.317297
656000,-0.414197,-1.584962,8.511387,1.201982,0.376432,0.232322
660000,-0.519542,-1.623269,8.341399,0.331753,0.468035,0.537665
664000,-0.577003,-1.599327,8.453926,-0.752217,0.055821,1.102551
668000,-0.459687,-1.637634,8.465898,-1.744583,-0.402194,1.728505
672000,-0.428562,-1.541866,8.635885,-2.507942,0.605440,2.262856
676000,-0.342371,-1.630451,8.674192,-2.981224,1.842081,2.995681
680000,-0.220267,-1.671153,8.848969,-2.996492,2.498570,3.392627
684000,-0.189142,-1.640028,8.769960,-3.011759,2.880249,3.209421
688000,-0.129287,-1.601721,8.906430,-2.843820,2.422234,3.102551
692000,-0.117316,-1.596933,8.913613,-2.065194,1.994753,2.858276
696000,-0.064643,-1.623269,8.748413,-1.439240,1.674142,2.583467
700000,-0.021548,-1.553837,8.887277,-0.920156,1.353531,2.064383
704000,0.000000,-1.491588,8.765172,-0.431606,0.971852,1.239955
708000,-0.057461,-1.539472,8.786720,0.026409,0.742844,0.171253
712000,-0.088585,-1.544260,8.801085,1.186714,1.536737,0.232322
716000,-0.210690,-1.525106,8.669404,1.339386,-1.425095,-0.989052
720000,-0.093374,-1.515530,8.746018,2.072211,-2.142652,-1.156991
724000,-0.098162,-1.551443,8.616732,2.591295,-1.486163,-1.141724
728000,-0.201113,-1.589750,8.528147,2.606562,-0.753339,-0.805846
732000,-0.189142,-1.549049,8.410830,2.560760,-0.585400,-1.401266
736000,-0.292093,-1.505953,8.391677,2.453890,1.307730,-0.989052
740000,-0.308852,-1.517924,8.207323,2.316485,2.926050,-0.485235
744000,-0.368707,-1.534683,8.166622,1.919539,3.842081,-0.057755
748000,-0.421380,-1.508347,8.283937,0.850837,2.681776,0.140719
752000,-0.332794,-1.503559,8.537724,0.377554,2.269562,0.247589
756000,-0.272939,-1.503559,8.446744,0.209615,2.345898,0.201787
760000,-0.306458,-1.539472,8.576031,0.240150,2.773379,0.186520
764000,-0.241814,-1.493982,8.542512,0.514959,3.704677,0.064383
768000,-0.313640,-1.491588,8.475474,0.514959,4.452768,0.140719
772000,-0.325611,-1.479617,8.398860,0.270684,4.895516,0.415528
776000,-0.387861,-1.508347,8.398860,-0.019392,4.788646,0.552933
780000,-0.418985,-1.467646,8.415619,0.087478,4.437501,0.812474
784000,-0.471658,-1.489193,8.319851,-0.202598,2.971852,0.827742
788000,-0.545878,-1.515530,8.310274,-0.614812,-0.096850,0.583467
792000,-0.325611,-1.541866,8.274361,-1.179698,-0.341125,0.827742
796000,-0.222661,-1.532289,8.386889,-1.714049,0.422234,0.827742
800000,-0.385466,-1.592144,8.413225,-1.591912,-0.936545,0.461329
804000,-0.337582,-1.635240,8.566454,-1.897255,-1.333492,0.201787
808000,-0.277727,-1.762132,8.561666,-1.912522,-1.394560,0.217055
812000,-0.368707,-1.697489,8.616732,-1.897255,-1.165553,0.415528
816000,-0.246603,-1.821988,8.860941,-1.912522,-1.364026,0.339192
820000,-0.260968,-1.766921,8.846576,-1.714049,-1.104484,0.461329
824000,-0.258574,-1.733402,8.892065,-1.317102,-0.707537,0.659803
828000,-0.320823,-1.764527,8.963891,-0.782751,-0.646469,0.415528
832000,-0.359130,-1.738190,8.932767,-0.294202,-1.287690,0.751406
836000,-0.253785,-1.707066,9.050082,0.621829,-1.715171,0.247589
840000,-0.284910,-1.723825,8.920795,1.507325,-1.272423,0.201787
844000,-0.270545,-1.651999,8.841787,1.659997,-1.348759,0.217055
848000,-0.265756,-1.577779,8.757990,1.919539,-0.066316,0.491864
852000,-0.201113,-1.556231,8.676587,1.919539,0.712310,0.583467
856000,-0.289698,-1.556231,8.638280,1.858470,1.124524,0.598734
860000,-0.292093,-1.501164,8.566454,1.507325,1.689409,0.171253
864000,-0.222661,-1.513135,8.396465,0.881371,1.842081,-0.073022
868000,-0.280122,-1.472434,8.370130,0.224882,1.155058,-0.683709
872000,-0.328006,-1.359907,8.322245,-0.294202,0.300096,-1.218060
876000,-0.385466,-1.438915,8.319851,-0.294202,-0.890743,-1.233327
880000,-0.268151,-1.438915,8.401254,-0.172064,-1.547232,-1.645541
884000,-0.383072,-1.486799,8.532935,-0.645346,-2.112118,-2.073022
888000,-0.380678,-1.604115,8.638280,-1.240766,-2.707537,-2.149358
892000,-0.457293,-1.584962,8.815451,-1.149163,-3.150285,-1.905083
896000,-0.531513,-1.618480,8.882488,-0.492675,-2.997614,-1.324930
900000,-0.533907,-1.640028,8.925584,0.667630,-2.738072,-0.851648
904000,-0.450110,-1.654393,8.920795,1.217249,-2.218988,-0.469968
908000,-0.529119,-1.642422,8.856153,2.041676,-1.623568,0.094917
912000,-0.418985,-1.659182,8.722076,2.194348,-0.951812,0.369726
916000,-0.294487,-1.596933,8.576031,2.255417,0.071089,0.720871
920000,-0.354342,-1.465251,8.475474,2.392821,0.284829,0.888810
924000,-0.411803,-1.482011,8.370130,1.415722,-2.020514,0.369726
928000,-0.330400,-1.429338,8.508993,1.308852,-3.394560,0.278123
932000,-0.296881,-1.505953,8.528147,1.522592,-4.738071,0.201787
936000,-0.306458,-1.537078,8.781932,1.995875,-5.776239,0.217055
940000,-0.129287,-1.551443,9.002198,2.957707,-5.562499,0.293391
944000,-0.016759,-1.532289,9.059659,3.812669,-4.218988,0.308658
948000,0.021548,-1.572991,8.961497,4.911905,-1.455629,0.430795
952000,-0.052672,-1.580173,8.985439,5.110379,0.880249,0.278123
956000,-0.241814,-1.489193,8.683769,5.278317,0.758111,0.278123
960000,-0.296881,-1.424550,8.777143,4.850837,-0.325858,0.049116
964000,-0.354342,-1.393425,8.695741,5.095111,-0.509064,0.079650
968000,-0.375890,-1.228225,8.659827,5.278317,-1.180820,-0.240961
972000,-0.430956,-1.103727,8.597578,5.247783,-2.463263,-0.973785
976000,-0.457293,-1.120486,8.544906,4.652363,-3.928911,-1.523403
980000,-0.450110,-1.015141,8.583213,3.812669,-4.738071,-2.302029
984000,-0.538695,-0.984017,8.762778,3.125646,-5.257155,-2.973785
988000,-0.703895,-1.089362,8.839393,2.560760,-6.280056,-3.721877
992000,-0.885855,-1.053449,9.016563,2.270684,-8.005247,-3.966152
996000,-1.125275,-1.230620,9.131485,2.469157,-9.730438,-3.874548
1000000,-1.209072,-1.266533,9.344569,3.049310,-10.951813,-3.752411
1004000,-1.285686,-1.352724,9.521740,3.568394,-11.760973,-2.561571
1008000,-1.285686,-1.419762,9.670180,4.240149,-11.989981,-1.370732
1012000,-1.292869,-1.422156,9.789890,4.682898,-11.257156,-0.286762
1016000,-1.146823,-1.510741,9.742006,5.430989,-10.463263,0.995681
1020000,-1.132457,-1.474828,9.813833,6.102745,-9.119752,2.262856
1024000,-1.000776,-1.443704,9.725247,6.438623,-8.402194,3.560566
1028000,-0.849942,-1.367089,9.629479,6.835569,-7.776239,4.308658
1032000,-0.675165,-1.331176,9.686940,7.278317,-5.715171,5.591101
1036000,-0.545878,-1.256956,9.718064,6.866104,-5.760972,5.972780
1040000,-0.418985,-1.137246,9.785102,7.156180,-4.860209,6.491864
1044000,-0.361524,-1.055843,9.696517,6.835569,-5.012881,6.949879
1048000,-0.158017,-0.914585,9.785102,7.003509,-3.150285,7.636902
1052000,-0.193930,-0.711078,9.804255,6.545493,-2.738072,8.217054
1056000,-0.143652,-0.521936,9.959879,7.064577,-2.570133,8.797207
1060000,0.136469,-0.363919,10.060435,8.255417,4.040555,10.384994
1064000,0.079009,-0.074220,10.228029,7.186714,1.429867,8.888810
1068000,0.155623,0.043096,10.228029,7.369921,2.513837,9.392627
1072000,0.143652,0.308852,10.216059,8.301218,0.513837,8.415527
1076000,0.284910,0.502782,10.417171,8.270684,0.391699,7.743772
1080000,0.373495,0.665588,10.357317,8.866104,0.605440,6.995681
1084000,0.517148,0.873884,10.297462,10.652364,0.193226,5.545299
1088000,0.620098,0.967257,10.108319,12.759233,0.971852,4.690337
1092000,0.622492,1.201889,9.907207,13.644730,3.994753,4.155986
1096000,0.529119,1.323994,9.531317,14.743966,7.826814,4.354459
1100000,0.349553,1.572991,9.107543,13.018775,5.231394,3.209421
1104000,0.440533,1.843535,8.731653,11.354653,5.261929,3.255223
1108000,0.354342,1.987187,8.300697,7.873737,4.315363,2.736139
1112000,0.426168,2.102109,8.145074,5.369921,3.765745,2.461329
1116000,0.624887,2.061408,8.003817,2.652363,5.811547,2.278123
1120000,0.493206,2.195483,8.010999,-0.721682,6.086356,1.346826
1124000,0.615310,2.109292,8.063671,-3.714049,6.315363,0.812474
1128000,0.531513,1.960851,8.408437,-3.072828,7.613074,0.217055
1132000,0.426168,1.778892,8.571242,-1.943056,7.490936,-0.607373
1136000,0.320823,1.565808,8.789114,-0.889621,5.414600,-1.340197
1140000,0.445322,1.460463,8.757990,0.255417,3.490936,-2.912716
1144000,0.210690,1.438915,8.887277,2.011142,4.742845,-4.256228
1148000,-0.246603,1.352724,8.939949,2.835569,1.704676,-6.653174
1152000,-0.588974,1.266533,8.875306,4.377554,-1.699904,-8.286762
1156000,-0.964863,1.177947,8.841787,5.125646,-4.768606,-8.576838
1160000,-1.369483,1.146823,8.817844,5.186715,-11.608301,-9.050121
1164000,-1.264138,1.019930,9.205706,6.026409,-12.722805,-8.332563
1168000,-1.484405,1.003170,9.083601,6.453890,-18.218988,-8.622641
1172000,-1.537078,0.950498,9.059659,6.942440,-19.318224,-6.760045
1176000,-1.723825,0.962469,9.109938,6.591295,-22.783875,-5.737144
1180000,-1.733402,0.964863,8.968679,5.858470,-22.173187,-3.233327
1184000,-1.920150,0.914585,8.827422,4.545493,-20.051048,0.232322
1188000,-1.982399,0.837971,8.844181,2.789768,-18.814407,3.881177
1192000,-1.934515,0.782904,9.021352,0.469157,-16.356392,8.110184
1196000,-1.833959,0.809240,9.265560,-1.912522,-12.829675,12.155986
1200000,-1.467646,0.993594,9.452309,-4.034659,-8.814408,15.530032
1204000,-1.024718,1.058237,9.524135,-5.637713,-4.554865,17.591101
1208000,-0.617704,1.156399,9.785102,-6.004126,-0.967079,18.736139
1212000,-0.282516,1.163582,9.706094,-5.836186,1.719944,18.583467
1216000,-0.021548,1.271321,9.825804,-4.935423,2.742844,17.407894
1220000,0.189142,1.400608,9.641450,-4.263667,1.139791,15.041482
1224000,0.591368,1.587356,9.526528,-4.141530,-1.058682,11.530031
1228000,0.928950,1.721431,9.423578,-3.652980,-1.593034,6.888811
1232000,1.096544,1.771709,9.414001,-3.958324,-1.470896,2.033848
1236000,1.022324,1.726219,9.346964,-3.194965,-3.501430,-3.431800
1240000,0.885855,1.539472,9.392453,-1.515576,-7.989980,-8.836381
1244000,0.756568,1.493982,9.356541,1.156180,-9.593034,-13.324930
1248000,0.505177,1.431733,9.112331,3.064577,-13.043416,-17.630274
1252000,0.198719,1.297657,8.631097,3.797401,-15.760973,-21.004318
1256000,-0.165200,1.187524,8.365341,2.942440,-19.684637,-23.889814
1260000,-0.646434,1.074997,8.372523,3.201982,-22.906012,-24.897449
1264000,-0.883460,0.869095,8.312668,3.247783,-26.280056,-25.645540
1268000,-0.857124,0.735020,8.185776,2.682898,-27.577766,-25.859282
1272000,-0.758962,0.586579,8.159439,1.018775,-28.096851,-25.981419
1276000,-0.811634,0.464475,8.130709,-0.859087,-28.447996,-26.332563
1280000,-0.713472,0.361524,8.034941,-2.996492,-27.760973,-26.149357
1284000,-0.780510,0.100556,8.173804,-5.408706,-26.906012,-25.477602
1288000,-0.799663,-0.059855,8.305486,-7.485042,-25.165552,-25.111189
1292000,-1.029507,-0.251391,8.508993,-8.614813,-23.608301,-24.118822
1296000,-1.237802,-0.440533,8.573636,-9.530843,-26.020515,-23.050119
1300000,-1.221043,-0.667982,8.872911,-9.759851,-25.226622,-21.844013
1304000,-1.355118,-0.869095,9.255983,-10.920156,-23.928911,-19.263861
1308000,-1.484405,-1.034295,9.129091,-11.088095,-23.333492,-16.332563
1312000,-1.659182,-0.976834,9.442732,-12.782752,-23.012880,-13.630274
1316000,-1.510741,-1.022324,9.375694,-14.095729,-26.631203,-11.111190
1320000,-1.204283,-0.883460,9.742006,-14.263667,-27.135019,-9.477602
1324000,-0.881066,-0.799663,9.991004,-12.614812,-26.264790,-8.302030
1328000,-0.615310,-0.775721,9.840169,-10.019393,-24.463263,-7.279129
1332000,-0.459687,-0.708684,9.452309,-7.943057,-25.073950,-7.324930
1336000,-0.304064,-0.730232,9.279925,-7.103362,-24.997614,-7.431800
1340000,-0.181959,-0.725443,9.021352,-6.492675,-25.135019,-8.042487
1344000,-0.090980,-0.653617,8.908825,-6.477407,-26.509064,-9.065389
1348000,0.019154,-0.663194,8.827422,-6.462141,-28.493797,-11.019587
1352000,0.126893,-0.792481,8.762778,-5.393438,-31.089216,-13.737144
1356000,0.165200,-0.921768,8.726865,-3.607178,-35.211353,-16.363098
1360000,0.064643,-1.041478,8.667010,-1.347636,-39.547234,-18.866915
1364000,-0.263362,-1.280898,8.456321,0.469157,-45.348759,-21.019587
1368000,-0.550666,-1.446098,8.585608,1.995875,-52.203720,-22.134090
1372000,-0.474052,-1.522712,8.762778,2.805035,-57.211353,-22.256227
1376000,-0.090980,-1.628057,8.966286,3.339386,-58.432728,-21.844013
1380000,0.098162,-1.599327,9.064447,3.339386,-55.944180,-21.294395
1384000,0.193930,-1.644817,8.973468,2.896638,-51.730438,-20.637907
1388000,0.337582,-1.702277,8.841787,2.179081,-46.921280,-18.943251
1392000,0.483629,-1.702277,8.702923,0.560760,-40.554867,-17.660807
1396000,0.622492,-1.584962,8.621520,-1.973591,-33.608299,-16.164625
1400000,0.756568,-1.553837,8.295909,-4.462141,-25.501431,-13.645541
1404000,0.842759,-1.553837,8.458714,-6.935423,-18.188454,-11.462335
1408000,0.814029,-1.455675,8.365341,-8.920156,-14.844942,-9.874549
1412000,1.216254,-1.505953,8.224083,-11.866721,-4.402194,-6.729510
1416000,1.520318,-1.486799,8.250419,-12.996491,6.544371,-5.492869
1420000,1.362301,-1.386243,7.927202,-15.576644,13.155058,-4.286762
1424000,1.134852,-1.300052,7.553706,-18.599545,16.239027,-3.950884
1428000,1.125275,-1.247379,7.366959,-20.553743,16.071089,-4.454701
1432000,0.864307,-1.323994,7.242460,-21.561377,17.399332,-4.439434
1436000,0.581791,-1.290475,7.189788,-21.210232,12.406966,-5.508136
1440000,0.433351,-1.589750,7.149086,-20.492674,7.948951,-6.027220
1444000,0.399832,-1.778892,7.012617,-18.431606,5.261929,-5.538671
1448000,0.172383,-2.008735,6.816292,-18.691147,0.773379,-5.187525
1452000,-0.074220,-2.202666,6.715736,-19.118628,-8.005247,-4.637907
1456000,0.203507,-2.339135,6.715736,-20.126263,-10.096850,-2.637907
1460000,0.277727,-2.612074,6.859388,-20.110994,-13.531965,-0.866915
1464000,0.490811,-2.827552,7.189788,-19.866720,-13.669370,1.865910
1468000,0.560243,-3.033453,7.479486,-18.141529,-12.554866,4.751406
1472000,0.679953,-3.110068,7.678205,-16.523209,-10.615934,8.644535
1476000,0.727837,-3.019088,7.745243,-16.767483,-11.974713,12.568199
1480000,1.077391,-3.145981,7.991845,-17.347635,-10.799141,16.797209
1484000,1.309628,-2.980781,8.044518,-17.973591,-8.631202,21.209421
1488000,1.762132,-2.992752,8.166622,-18.691147,-1.394560,26.568201
1492000,2.430115,-3.074155,8.255207,-18.965956,3.628341,30.568201
1496000,3.134010,-3.138798,8.271967,-19.225498,13.445134,34.583466
1500000,3.617639,-3.177106,7.867347,-20.034658,20.376432,35.850643
1504000,3.995923,-3.167529,7.364564,-23.164431,25.689409,35.575832
1508000,4.127604,-3.052607,6.679823,-27.485041,29.643608,33.743774
1512000,4.211401,-3.191471,6.323087,-30.904888,31.918415,31.911713
1516000,4.331111,-3.251326,6.026206,-33.897255,34.941319,29.255222
1520000,4.438850,-3.292027,5.877765,-37.011757,34.300095,25.850643
1524000,4.740520,-3.399766,5.643134,-39.027027,34.605438,21.667437
1528000,5.027823,-3.588908,5.300763,-42.798019,31.765743,14.491863
1532000,5.513846,-3.940856,5.133168,-45.637711,33.139790,6.980413
1536000,5.616797,-4.096479,4.845864,-48.462139,31.292461,-1.813480
1540000,5.777209,-4.355053,4.771644,-52.477406,27.582539,-12.088289
1544000,5.817910,-4.718972,4.862624,-55.652981,22.803913,-22.531036
1548000,6.100426,-4.955997,5.609614,-60.385803,21.353531,-33.279129
1552000,6.186617,-5.372589,6.622362,-61.866722,17.979485,-44.546303
1556000,6.471527,-5.817910,7.395689,-59.698780,30.284828,-52.454700
1560000,6.301539,-6.050148,8.611943,-57.332367,40.177959,-62.744778
1564000,5.856217,-6.380548,8.980651,-55.805653,43.231392,-74.164627
1568000,5.432444,-6.507440,9.071630,-52.767483,47.887882,-86.011955
1572000,4.517859,-7.007828,9.574412,-48.767483,57.979485,-95.279129
1576000,3.643975,-7.505822,9.452309,-42.996490,61.857349,-105.569206
1580000,2.525883,-7.817069,9.023746,-36.446873,68.300102,-113.523399
1584000,0.905008,-8.049306,8.757990,-32.507942,70.010025,-121.050117
1588000,-0.689530,-8.281544,8.444349,-28.049927,66.010025,-126.729507
1592000,-2.094927,-8.652645,8.453926,-21.820919,60.498569,-131.355469
1596000,-3.581726,-9.112331,8.267179,-14.950690,55.109257,-133.523407
1600000,-5.152322,-9.370906,8.157045,-8.965958,46.666508,-133.156998
1604000,-6.646304,-9.516952,7.936779,-3.927789,33.842079,-131.218063
1608000,-7.903260,-9.821015,8.010999,-0.294202,24.437500,-125.660805
1612000,-9.437943,-9.991004,8.508993,0.988241,13.674142,-116.973785
1616000,-10.481815,-10.134656,8.985439,0.056943,-1.760972,-105.553940
1620000,-11.745954,-10.002975,9.198523,-2.981224,-21.272423,-88.744774
1624000,-11.846510,-10.043676,9.854534,-2.324736,-38.570133,-71.218056
1628000,-11.310209,-9.773131,10.316615,2.072211,-47.730438,-50.622639
1632000,-10.120291,-9.543288,10.635044,5.751600,-50.539600,-28.195158
1636000,-9.129091,-8.935161,10.603919,9.156180,-41.898376,-4.439434
1640000,-8.291121,-8.240842,10.153810,6.911905,-46.951813,15.102551
1644000,-6.457162,-7.589619,9.926360,5.675264,-49.440361,33.270489
1648000,-4.388572,-6.840234,9.811439,4.148547,-56.142651,45.591103
1652000,-2.147599,-6.186617,9.567230,4.911905,-55.608299,55.713238
1656000,-0.225055,-5.465962,9.557653,8.606562,-52.295322,61.850643
1660000,1.379060,-4.678270,9.095572,10.347020,-57.593033,62.766674
1664000,3.117251,-4.276044,8.540117,13.293585,-56.554867,60.797207
1668000,4.472369,-3.708618,8.305486,13.324119,-58.493797,54.217056
1672000,5.497087,-3.217807,8.015787,13.919538,-57.348759,46.155987
1676000,6.009446,-2.817975,7.460332,15.201982,-56.234257,37.728504
1680000,5.999869,-2.389413,6.627151,16.362288,-61.150288,28.476597
1684000,6.129156,-2.035071,6.449979,14.102745,-68.936539,17.942245
1688000,6.691794,-1.917756,6.466739,17.217249,-49.409828,14.659802
1692000,6.378153,-1.663970,6.356606,19.339386,-36.142651,10.629268
1696000,6.205771,-1.534683,5.870583,20.408089,-22.890743,7.514764
1700000,5.667076,-0.972046,4.898537,15.995874,-16.127384,3.239955
1704000,5.250484,-0.632069,4.256891,10.682898,-13.409828,-1.187526
1708000,5.255273,-0.751779,4.153940,6.194348,-3.928911,-2.790579
1712000,4.685453,-0.708684,4.249708,2.148547,3.582539,-4.531037
1716000,4.206613,-0.821211,4.376601,0.972974,7.689410,-6.454701
1720000,4.039018,-0.833182,4.429273,-0.721682,8.498569,-8.775312
1724000,3.900155,-0.931344,4.613626,-3.423972,11.185592,-10.485236
1728000,3.694253,-1.079785,4.984728,-5.286569,18.025288,-11.706610
1732000,3.210624,-1.304840,5.470751,-8.645347,22.101622,-12.531037
1736000,2.765303,-1.462857,5.858612,-11.881988,21.353531,-13.523404
1740000,2.317587,-1.561020,6.483498,-13.546111,16.116890,-14.958518
1744000,2.308010,-1.802834,7.050924,-12.813285,13.994752,-14.393633
1748000,2.329558,-2.094927,7.953538,-9.576645,13.185592,-14.821114
1752000,2.195483,-2.245761,8.403648,-5.530843,11.719943,-15.981419
1756000,2.051831,-2.279280,8.719683,-0.874354,8.849714,-16.653173
1760000,1.869871,-2.322376,8.860941,1.598928,9.170325,-16.546303
1764000,1.599327,-2.382231,8.892065,2.805035,8.590172,-15.950885
1768000,1.084573,-2.576161,9.090784,2.957707,6.987119,-14.851648
1772000,0.670376,-2.705448,9.191340,1.690531,-1.287690,-14.576838
1776000,0.703895,-2.770091,9.603143,2.789768,3.933684,-9.721877
1780000,0.507571,-3.009511,9.892841,2.866104,5.078722,-5.966151
1784000,0.122104,-2.987964,9.911995,2.774501,1.872615,-2.805846
1788000,0.430956,-3.062184,9.947908,5.018775,0.971852,1.224688
1792000,0.821211,-3.124433,10.347740,6.560760,6.361165,5.667437
1796000,0.897826,-3.078943,10.352529,8.514958,7.796279,8.247588
1800000,1.216254,-3.035848,10.357317,10.499692,9.704676,10.308658
1804000,1.429338,-2.834735,10.266336,13.095111,11.674142,11.865910
1808000,1.544260,-2.650381,9.828198,14.774501,12.101623,12.476596
1812000,1.647211,-2.334347,9.253590,15.324119,15.979485,13.224688
1816000,1.769315,-2.027889,8.616732,14.133279,20.513836,12.965146
1820000,1.637634,-1.778892,7.824251,11.339386,19.719944,11.499497
1824000,1.592144,-1.685518,7.328651,7.263050,21.567272,10.766672
1828000,1.434127,-1.608904,7.060501,4.347020,25.155058,10.232322
1832000,1.223437,-1.596933,7.065289,2.163814,25.506203,9.850642
1836000,1.058237,-1.510741,7.271191,2.377554,30.803913,10.843008
1840000,0.814029,-1.520318,7.144298,3.034043,30.773378,11.224688
1844000,0.847547,-1.455675,6.806715,3.614195,29.933683,11.117818
1848000,0.902614,-1.357512,6.718130,2.881371,26.055820,9.606367
1852000,1.070208,-1.381454,6.344635,0.698165,22.284828,7.301024
1856000,0.936133,-1.307234,6.418855,-2.217866,19.063456,4.644536
1860000,0.596156,-1.436521,6.689400,-5.286569,15.048187,3.407894
1864000,0.581791,-1.537078,7.242460,-6.202599,11.872615,3.346826
1868000,0.667982,-1.731008,7.496245,-5.347637,10.880248,3.377360
1872000,0.816423,-1.733402,7.594408,-3.347636,10.590172,3.606368
1876000,0.835576,-1.745373,7.733272,-2.004125,9.887882,3.514765
1880000,0.960075,-1.723825,7.709330,-2.034660,8.040554,2.568200
1884000,0.972046,-1.759738,7.931990,-4.401072,4.468035,1.484230
1888000,0.897826,-1.814805,8.334216,-7.317102,-0.997614,-0.118823
1892000,0.799663,-2.018312,8.815451,-8.294202,-6.509064,-0.744777
1896000,0.861913,-2.097321,9.349358,-7.943057,-12.127385,-0.760045
1900000,1.118092,-2.176329,9.868899,-6.324736,-13.638836,-1.004319
1904000,1.424550,-2.250550,9.935937,-4.920156,-10.982347,-1.263861
1908000,1.654393,-2.341529,9.854534,-3.927789,-6.814407,-2.424167
1912000,1.489193,-2.391808,9.504981,-3.866720,-4.646469,-4.317297
1916000,1.110910,-2.454057,9.332599,-4.828553,-4.005247,-5.599739
1920000,0.696713,-2.458845,9.311050,-6.828553,-4.371659,-6.057755
1924000,0.711078,-2.557007,9.471462,-7.286569,-0.707537,-5.233327
1928000,0.284910,-2.600103,9.481039,-5.393438,-6.127385,-7.004319
1932000,0.359130,-2.628834,9.014170,-3.546110,-10.799141,-7.798213
1936000,0.469264,-2.626439,9.023746,-1.088094,-6.570133,-7.370731
1940000,-0.023942,-2.638410,8.477868,-1.317102,-12.692270,-9.034854
1944000,-0.021548,-2.765303,8.133103,-1.301835,-14.234255,-9.080656
1948000,-0.023942,-2.726996,8.236053,-1.439240,-14.524332,-9.584473
1952000,-0.306458,-2.698265,8.185776,-2.126262,-14.783874,-9.126457
1956000,-0.591368,-2.712631,7.989451,-2.202598,-16.341125,-7.523403
1960000,-0.620098,-2.705448,7.955932,-2.004125,-15.852576,-5.263861
1964000,-0.488417,-2.535460,7.759608,-2.462140,-15.791507,-2.744777
1968000,-0.363919,-2.525883,7.687782,-2.355270,-15.486164,-0.714243
1972000,-0.004788,-2.360683,7.558495,-3.194965,-15.073950,0.659803
1976000,0.162806,-2.288857,7.369353,-4.340003,-13.486164,1.636902
1980000,0.371101,-2.219425,7.556100,-6.965958,-12.051049,2.690337
1984000,0.603339,-2.346318,8.116343,-8.935423,-9.791507,4.247589
1988000,0.849942,-2.420538,8.769960,-8.721683,-4.783873,6.522398
1992000,1.225831,-2.427721,9.232041,-7.240767,2.193226,8.232322
1996000,1.484405,-2.444480,9.184157,-6.049927,8.269562,9.499497
