time_us,ax,ay,az,gx,gy,gz
0,0.426168,-0.416591,8.726865,0.560760,0.376432,1.102551
4000,0.486023,-0.392649,8.736442,0.728699,-0.783873,-0.179892
8000,0.474052,-0.416591,8.767567,1.293585,-1.073950,-0.821113
12000,0.454898,-0.457293,8.784326,1.950073,-0.463263,-1.645541
16000,0.414197,-0.469264,8.712500,2.530226,-0.280056,-1.844014
20000,0.270545,-0.486023,8.623915,2.682898,-0.722805,-1.905083
24000,0.201113,-0.548272,8.599973,2.789768,-0.936545,-2.195159
28000,0.191536,-0.545878,8.657434,2.728699,-0.402194,-1.813480
32000,0.138864,-0.615310,8.753201,3.018775,-1.745705,-1.996686
36000,0.088585,-0.653617,8.765172,3.263050,-1.806774,-1.660808
40000,-0.033519,-0.610521,8.743625,2.927173,-0.432728,-0.897449
44000,-0.052672,-0.713472,8.657434,2.179081,0.926050,-0.011953
48000,0.000000,-0.624887,8.511387,1.018775,4.483303,0.965146
52000,0.090980,-0.533907,8.561666,-0.370538,6.926051,1.545299
56000,0.167594,-0.567426,8.671799,-1.286568,8.712310,1.926978
60000,0.090980,-0.497994,8.734048,-1.332370,9.124523,1.911711
64000,0.067038,-0.454898,8.767567,-1.179698,8.559638,1.789574
68000,0.124498,-0.399832,8.868123,-1.973591,7.994752,1.484230
72000,0.112527,-0.440533,8.980651,-2.141530,7.964219,0.949879
76000,0.055067,-0.445322,9.023746,-2.019392,8.910783,0.644536
80000,-0.141258,-0.505177,9.045294,-0.904888,9.002386,0.812474
84000,-0.215478,-0.445322,9.006987,-0.370538,7.002387,0.507131
88000,-0.323217,-0.418985,8.896853,0.133279,3.979486,0.110184
92000,-0.316035,-0.464475,8.942344,0.408088,0.330631,-0.546304
96000,-0.301669,-0.481235,8.995016,0.881371,-2.325858,-0.775312
100000,-0.316035,-0.469264,9.006987,0.789768,-6.020514,-1.019587
104000,-0.265756,-0.452504,9.083601,1.232516,-4.692270,-0.073022
108000,-0.349553,-0.330400,8.937555,1.049310,-6.203721,0.094917
112000,-0.172383,-0.294487,8.930372,0.896638,-5.180820,0.461329
116000,-0.055067,-0.244209,8.949526,0.774501,-2.860209,1.072016
120000,-0.095768,-0.198719,8.925584,0.774501,-2.814408,1.209421
124000,0.102951,-0.177171,8.901642,0.774501,-2.692270,0.873543
128000,0.148441,-0.098162,8.906430,0.453890,-2.814408,0.400261
132000,0.205901,-0.071826,8.901642,0.545493,-2.432728,0.201787
136000,0.330400,-0.134075,8.954314,1.034043,-0.936545,-0.256228
140000,0.210690,0.043096,9.045294,1.308852,-1.852576,-0.882182
144000,0.169988,-0.031125,8.968679,1.446256,-2.875476,-1.156991
148000,0.098162,-0.050278,8.937555,1.736333,-2.371660,-1.050121
152000,-0.011971,-0.021548,8.655039,1.339386,-4.173186,-1.034854
156000,-0.009577,-0.011971,8.631097,1.782134,-3.989980,0.094917
160000,-0.158017,0.069432,8.619126,1.278317,-5.699903,-0.088289
164000,0.031125,0.148441,8.568848,1.064577,-6.356392,0.858276
168000,0.387861,0.143652,8.690952,2.469157,2.376432,3.255223
172000,-0.059855,0.450110,8.592790,-0.523209,-4.707537,0.949879
176000,0.234632,0.562637,8.293514,-1.530843,-8.020514,1.316291
180000,0.454898,0.610521,8.441956,-2.675881,-5.699903,1.270490
184000,0.390255,0.646434,8.492233,-2.416339,-4.188453,1.942245
188000,0.347159,0.881066,8.341399,-3.347636,-4.799140,1.804841
192000,0.445322,0.883460,8.492233,-4.340003,-5.257155,1.926978
196000,0.450110,0.991199,8.681376,-4.920156,-3.699904,2.430795
200000,0.512359,1.007959,8.846576,-5.240767,-1.974713,2.965146
204000,0.675165,0.988805,9.088389,-5.744583,-0.493797,3.239955
208000,0.735020,0.976834,8.963891,-6.278934,1.139791,3.072016
212000,0.914585,0.907402,9.124303,-6.798018,3.735211,3.346826
216000,1.074997,0.938527,9.167398,-6.309469,6.391699,2.644536
220000,1.209072,0.957681,9.198523,-5.927790,8.208493,1.697971
224000,1.266533,1.041478,9.277532,-5.683515,9.170325,0.232322
228000,1.510741,0.986411,9.334992,-4.187331,12.406966,-0.653174
232000,1.546654,1.048660,9.488221,-3.057560,11.552004,-3.187526
236000,1.424550,1.154005,9.332599,-2.187331,9.781012,-5.447067
240000,1.527501,1.201889,9.275137,-1.973591,9.643607,-7.462335
244000,1.448492,1.266533,9.203311,-0.996492,9.292462,-9.813480
248000,1.376666,1.237802,9.191340,0.484424,7.796279,-12.088289
252000,1.273715,1.314417,9.074024,0.835569,5.704677,-13.660809
256000,1.175553,1.352724,9.069236,1.553127,6.071089,-15.523404
260000,0.962469,1.391031,8.906430,1.843203,5.567272,-16.805845
264000,0.677559,1.386243,8.896853,1.079844,3.017654,-18.378365
268000,0.497994,1.316811,8.937555,1.705798,1.704676,-19.508135
272000,0.268151,1.367089,8.863335,1.568394,1.216127,-19.767677
276000,0.129287,1.355118,8.949526,0.759233,0.635974,-20.179892
280000,-0.169988,1.333570,8.829816,0.041676,-0.768606,-20.118822
284000,-0.177171,1.347936,8.719683,-0.843820,-1.333492,-19.737143
288000,-0.500388,1.422156,8.638280,-2.889621,-1.913644,-19.279127
292000,-0.524330,1.448492,8.772355,-5.194965,-1.883110,-18.256227
296000,-0.644040,1.441309,8.667010,-7.408706,-1.547232,-16.714243
300000,-0.814029,1.438915,8.707711,-9.851454,-1.623568,-15.172258
304000,-0.787692,1.503559,8.781932,-12.034659,-1.959446,-13.218060
308000,-0.658405,1.539472,8.992621,-14.309468,-1.150285,-11.828747
312000,-0.500388,1.637634,9.066842,-16.813284,0.239028,-10.134090
316000,-0.423774,1.606509,9.167398,-18.431606,1.124524,-8.653174
320000,-0.347159,1.618480,9.210494,-19.408705,1.200860,-7.141724
324000,-0.220267,1.640028,9.538500,-19.271299,0.910783,-5.935617
328000,0.021548,1.738190,9.744401,-18.446873,0.055821,-4.897449
332000,0.270545,1.788469,9.842564,-17.530842,-0.127385,-4.469968
336000,0.330400,1.855506,9.727641,-16.049927,-0.554866,-4.622640
340000,0.404620,1.795651,9.646238,-14.767484,-1.974713,-4.912716
344000,0.739808,1.817199,9.658210,-13.469775,-3.073950,-5.981419
348000,1.007959,1.723825,9.557653,-12.095729,-1.883110,-7.248594
352000,1.120486,1.774103,9.684546,-10.401072,-1.928911,-9.813480
356000,1.539472,1.766921,9.521740,-8.477407,0.666508,-11.706610
360000,1.589750,1.723825,9.416395,-4.340003,-2.432728,-16.149357
364000,1.766921,1.678335,9.318233,-2.416339,-8.768606,-21.019587
368000,1.848324,1.587356,9.299079,0.743966,-13.776240,-26.317295
372000,1.654393,1.544260,9.217676,3.018775,-18.310591,-30.347830
376000,1.386243,1.410185,9.248801,4.163814,-22.417461,-33.966152
380000,1.031901,1.201889,9.232041,4.255417,-26.203720,-36.698975
384000,0.790087,0.861913,9.342175,4.820302,-25.959446,-37.126457
388000,0.529119,0.620098,9.416395,5.232516,-22.768606,-37.080654
392000,0.088585,0.447716,9.406818,4.423356,-20.783875,-36.729511
396000,-0.124498,0.275333,9.193734,2.377554,-19.913645,-35.752411
400000,-0.246603,0.143652,9.157822,-0.446873,-15.470897,-33.706608
404000,-0.591368,-0.059855,9.205706,-3.927789,-13.760973,-32.164623
408000,-0.799663,-0.246603,9.373300,-6.523210,-11.333492,-29.676075
412000,-0.909797,-0.354342,9.655815,-8.660614,-8.402194,-26.744778
416000,-1.036689,-0.514753,9.696517,-9.683515,-4.035782,-23.615005
420000,-1.048660,-0.598550,9.811439,-9.912522,1.200860,-19.996685
424000,-1.218649,-0.512359,9.653421,-10.599545,2.666508,-17.355463
428000,-1.386243,-0.414197,9.392453,-12.981225,-1.806774,-15.401266
432000,-0.873884,-0.325611,9.737218,-11.256034,4.956585,-11.615006
436000,-1.254562,-0.208296,9.794679,-11.393438,0.177959,-10.897449
440000,-0.790087,-0.292093,9.622296,-8.935423,0.361165,-8.500503
444000,-0.553061,-0.184354,10.081984,-9.011759,-0.570133,-8.607373
448000,-0.184354,-0.248997,9.933543,-6.263667,-2.310591,-9.355465
452000,0.174777,-0.308852,9.701305,-1.194965,-3.531965,-11.324930
456000,0.294487,-0.284910,9.540894,3.705798,-4.218988,-13.569205
460000,0.208296,-0.232238,9.497798,7.125646,-10.234255,-17.385998
464000,-0.287304,-0.349553,9.320627,10.484425,-23.257156,-21.844013
468000,-0.565032,-0.445322,9.239224,14.255417,-35.028149,-24.760044
472000,-0.823605,-0.584185,9.059659,16.591295,-44.509064,-25.706610
476000,-1.285686,-0.641646,8.841787,16.560760,-51.684635,-25.798212
480000,-1.470040,-0.646434,8.678981,16.011143,-54.967079,-24.225693
484000,-1.764527,-0.775721,8.432379,14.316485,-56.341125,-21.248594
488000,-1.862689,-0.861913,8.583213,12.698165,-54.982346,-16.683708
492000,-1.872266,-0.893037,8.693346,11.308852,-51.715172,-10.943251
496000,-1.709460,-0.785298,8.695741,9.278317,-48.631203,-5.340197
500000,-1.151611,-0.605733,8.547300,7.095111,-44.509064,-0.393632
504000,-0.423774,-0.459687,8.415619,4.911905,-37.196087,4.262856
508000,0.191536,-0.316035,8.465898,2.285951,-30.371660,7.087284
512000,0.823605,-0.289698,8.485051,0.301218,-23.684637,8.675070
516000,1.414973,-0.246603,8.547300,-0.691148,-18.112118,9.072016
520000,1.747767,-0.198719,8.544906,-1.775118,-14.280057,8.278123
524000,2.116474,-0.215478,8.396465,-2.904888,-10.081584,6.476597
528000,2.257732,-0.215478,8.355764,-3.881988,-7.776239,3.865910
532000,2.365471,-0.272939,8.432379,-4.248401,-8.096850,0.644536
536000,2.516306,-0.452504,8.537724,-2.630080,-9.226622,-2.302029
540000,2.640805,-0.572214,8.923190,-2.141530,-10.554866,-6.760045
544000,2.853889,-0.799663,9.100361,1.385188,-9.760973,-11.080656
548000,2.667141,-0.768539,8.916007,3.507325,-11.257156,-16.210426
552000,2.712631,-1.046266,8.655039,7.186714,-5.791507,-19.172258
556000,1.970428,-1.019930,8.396465,8.224882,-6.539598,-22.240959
560000,1.369483,-0.969652,7.967903,8.362287,-12.234255,-24.134090
564000,1.379060,-1.086968,7.917625,6.743966,-14.264790,-24.561571
568000,1.410185,-1.211466,8.030152,5.461524,-12.936545,-24.561571
572000,1.367089,-1.233014,7.910442,4.148547,-12.310591,-24.912716
576000,1.312023,-1.187524,7.785944,3.079844,-13.318225,-26.103556
580000,1.216254,-1.024718,7.706935,1.537859,-15.012881,-27.263861
584000,0.998382,-1.039083,7.568071,-0.935423,-15.241889,-27.492868
588000,0.768539,-0.964863,7.721301,-1.317102,-19.150286,-28.622639
592000,0.687136,-1.086968,7.927202,-0.217866,-15.837309,-27.172258
596000,0.280122,-1.137246,7.568071,1.003508,-14.310591,-25.737143
600000,-0.241814,-1.051055,7.184999,-0.889621,-10.402194,-23.050119
604000,-0.529119,-1.027112,6.639122,-3.088094,-9.715171,-19.385998
608000,-0.617704,-1.007959,6.507440,-7.912522,-7.135018,-15.126457
612000,-0.507571,-1.134852,6.607996,-13.378171,-3.577766,-10.042488
616000,-0.385466,-1.230620,6.698977,-18.507942,-0.188453,-4.637907
620000,-0.186748,-1.268927,6.737284,-23.515575,0.834447,0.217055
624000,0.129287,-1.323994,6.804321,-28.141529,4.330631,5.346826
628000,0.486023,-1.513135,7.015011,-34.034660,9.384066,10.797207
632000,0.720655,-1.709460,7.048530,-40.095726,10.803913,14.186520
636000,1.132457,-1.869871,7.429208,-44.691147,12.468035,17.774307
640000,1.721431,-2.157176,7.730877,-48.126263,15.017653,20.491865
644000,1.699883,-2.391808,8.003817,-50.630077,9.246661,21.072018
648000,2.248155,-2.659958,8.231265,-51.149162,5.292463,22.278124
652000,2.863465,-2.999935,8.657434,-50.752216,5.521471,21.942245
656000,3.349488,-3.090914,9.148245,-48.507942,9.292462,20.797209
660000,3.670311,-2.968810,9.205706,-46.202599,14.071088,18.873545
664000,4.122815,-2.911349,9.251195,-45.408703,23.246660,16.690338
668000,4.091691,-2.947262,9.162610,-44.019390,31.704678,13.530031
672000,3.823540,-2.868254,8.753201,-42.721684,38.025288,9.911711
676000,3.584120,-2.911349,8.350976,-42.110996,41.078720,5.438429
680000,3.356671,-3.052607,8.080431,-42.843819,41.903149,0.995681
684000,2.956839,-3.205836,7.630321,-43.408703,42.513836,-2.927984
688000,2.671929,-3.397372,7.400477,-44.691147,42.697041,-6.729510
692000,2.367866,-3.670311,7.402872,-45.820919,40.803913,-9.813480
696000,2.224213,-3.787627,7.287950,-47.240765,35.735210,-13.569205
700000,2.135628,-3.900155,7.144298,-48.278934,35.063454,-16.179892
704000,2.087744,-4.029441,7.156269,-48.691147,36.727577,-17.920349
708000,1.867477,-4.103662,6.995857,-49.744583,30.544371,-22.118822
712000,2.099715,-4.220978,7.024588,-49.775116,28.590172,-26.271494
716000,2.145205,-4.431667,7.319075,-49.286568,31.017653,-30.302029
720000,1.661576,-4.517859,7.429208,-50.538475,27.628340,-35.248592
724000,1.453280,-4.740520,7.771579,-50.553741,24.559637,-39.447067
728000,1.431733,-5.135562,8.080431,-48.691147,28.055820,-42.531036
732000,1.077391,-5.329493,8.465898,-46.843819,28.223761,-47.248592
736000,0.519542,-5.631162,8.492233,-45.927788,26.544371,-51.584473
740000,-0.265756,-5.619191,8.607155,-45.698780,22.910784,-55.508137
744000,-1.089362,-6.177041,9.165004,-44.080460,17.765745,-57.416534
748000,-1.776498,-6.354211,9.682152,-36.828552,14.987119,-57.874546
752000,-2.681506,-6.327875,9.423578,-33.133896,7.903150,-57.523403
756000,-3.059790,-6.615179,9.842564,-29.317101,3.674142,-54.989052
760000,-3.253720,-6.627151,10.271125,-25.042292,3.933684,-51.599739
764000,-3.608062,-6.663064,10.426748,-20.462139,5.735211,-46.882183
768000,-3.960010,-6.548141,10.558430,-16.523209,2.773379,-43.233326
772000,-4.103662,-6.584054,10.814610,-11.378171,-2.646469,-38.836380
776000,-4.417302,-6.629545,11.073183,-5.485042,-10.066317,-33.615005
780000,-4.340688,-6.370971,11.288661,1.171447,-16.280056,-27.355463
784000,-4.225766,-6.311116,11.379641,6.438623,-21.150286,-20.561571
788000,-3.859453,-6.394913,11.008539,12.621829,-20.127384,-12.118824
792000,-3.960010,-5.748478,10.280702,16.972975,-21.806774,-4.973785
796000,-3.043030,-5.389348,9.390059,19.889006,-21.287691,2.201787
800000,-2.360683,-4.831499,8.101978,22.331753,-18.951813,8.629268
804000,-2.032677,-4.173094,7.070077,21.232517,-19.165552,14.827742
808000,-1.376666,-3.847482,6.663064,19.476791,-21.409828,19.133085
812000,-0.730232,-3.450045,6.421249,15.766867,-26.692270,21.346827
816000,0.088585,-3.002329,6.174646,11.782134,-29.837309,23.026215
820000,0.596156,-2.705448,5.937620,8.591294,-37.577766,21.942245
824000,1.754950,-2.410961,6.251261,6.545493,-37.241890,20.934612
828000,2.588132,-2.047042,6.579266,4.316485,-36.677002,18.247589
832000,3.385401,-1.896208,6.871359,5.110379,-31.272423,15.270490
836000,3.792415,-1.747767,7.405266,4.484425,-28.600668,11.239955
840000,4.240131,-1.632846,7.903260,6.621829,-24.447996,6.995681
844000,4.431667,-1.592144,8.279149,8.514958,-23.226622,1.759039
848000,4.630386,-1.513135,8.300697,8.224882,-17.516699,-2.179892
852000,4.656722,-1.458069,8.406042,8.209616,-14.035782,-7.141724
856000,4.508282,-1.474828,8.329428,9.415722,-9.028149,-11.447068
860000,4.448427,-1.517924,8.159439,11.980607,0.742844,-14.317297
864000,3.790021,-1.467646,7.929596,12.285951,5.109257,-17.233326
868000,3.203442,-1.472434,7.750031,13.492058,9.216126,-19.492868
872000,2.707842,-1.491588,7.544129,14.316485,12.651241,-21.660807
876000,2.178724,-1.611298,7.266402,16.087479,18.574905,-21.752411
880000,1.465251,-1.553837,6.770802,17.827936,19.765745,-22.363098
884000,0.888249,-1.589750,6.275203,18.530226,19.032921,-22.149357
888000,0.064643,-1.568202,5.837064,18.133280,14.422234,-20.989052
892000,-0.201113,-1.486799,5.590461,14.591294,8.071088,-18.836380
896000,-0.476446,-1.532289,5.604826,10.469157,2.193226,-16.515770
900000,-0.533907,-1.541866,5.729325,6.163814,-2.051049,-13.447068
904000,-0.493206,-1.549049,5.750873,2.087478,-3.669369,-9.889816
908000,-0.328006,-1.553837,5.987898,-2.507942,-5.883110,-6.714243
912000,-0.100556,-1.491588,6.493075,-7.286569,-7.577766,-4.256228
916000,0.390255,-1.618480,7.613562,-7.607179,1.048188,-0.576838
920000,0.191536,-1.640028,8.248025,-9.515575,0.773379,1.759039
924000,0.581791,-1.671153,8.655039,-8.110995,6.452768,5.591101
928000,0.641646,-1.534683,9.277532,-8.706415,14.498569,9.041482
932000,0.735020,-1.680730,9.083601,-7.393438,21.078722,12.980413
936000,0.945710,-1.474828,9.040505,-6.248401,24.590172,15.239955
940000,1.158794,-1.426944,8.688558,-6.202599,25.994753,16.415529
944000,1.156399,-1.398214,8.475474,-6.935423,24.926050,16.858276
948000,1.628057,-1.285686,8.432379,-8.324736,24.773378,15.972779
952000,1.618480,-1.261744,8.449138,-8.294202,20.361164,14.766672
956000,1.860295,-1.197101,8.616732,-7.271301,17.200859,12.797207
960000,1.838747,-1.192312,8.662222,-5.790385,13.246661,10.430795
964000,1.867477,-1.165976,8.549694,-4.324736,8.803913,7.255223
968000,2.118869,-1.000776,8.441956,-3.561377,5.185593,4.262856
972000,2.375048,-0.921768,8.530540,-2.950690,3.170325,1.392627
976000,2.288857,-0.926556,8.461109,-1.347636,-1.974713,-2.576838
980000,2.382231,-1.019930,8.590396,-0.034660,-8.127385,-6.637907
984000,2.492364,-1.072602,8.925584,1.079844,-9.287690,-10.744778
988000,2.549825,-1.115698,8.805874,2.270684,-6.783873,-14.393633
992000,2.138022,-1.144428,8.588001,2.805035,-4.249522,-17.248594
996000,2.003947,-1.242591,8.705317,3.446256,-0.417461,-19.599739
1000000,1.482011,-1.383849,8.635885,4.576027,2.620707,-20.958517
1004000,0.885855,-1.556231,8.219295,4.453890,6.910783,-20.454700
1008000,0.416591,-1.616086,7.841011,3.064577,8.834447,-19.080654
1012000,0.134075,-1.711854,7.898471,0.576027,10.468035,-17.492868
1016000,0.083797,-1.939303,7.888895,-1.683514,14.086355,-15.950885
1020000,-0.694318,-1.968034,7.582437,-4.630079,15.475668,-13.004320
1024000,-1.391031,-2.056619,7.623138,-10.141530,9.719943,-9.844014
1028000,-1.577779,-2.188300,8.295909,-13.866721,2.987119,-5.401266
1032000,-1.343147,-2.322376,8.896853,-14.813285,0.071089,-0.561571
1036000,-0.878672,-2.353500,9.212888,-14.233132,-0.096850,4.018581
1040000,-0.356736,-2.193089,9.313444,-13.927789,1.048188,7.178887
1044000,0.222661,-2.099715,9.272743,-14.202600,4.819180,9.499497
1048000,0.404620,-2.154782,9.947908,-11.423973,9.063455,11.087283
1052000,0.306458,-2.082955,9.995792,-9.866721,2.712310,11.041482
1056000,0.806846,-2.030283,10.321404,-5.988858,6.635974,12.552932
1060000,0.897826,-1.991976,10.371682,-1.958324,8.468035,12.171253
1064000,0.964863,-1.958457,10.149021,3.247783,9.093989,12.705604
1068000,0.914585,-1.915361,9.847352,6.026409,6.697043,12.446062
1072000,0.914585,-1.865083,9.555259,8.866104,3.872615,11.560566
1076000,1.158794,-1.683124,9.253590,10.179081,-0.677003,9.774306
1080000,1.333570,-1.699883,9.294291,11.675264,-3.913644,8.140718
1084000,1.326388,-1.687912,9.308656,12.988241,-8.005247,5.575833
1088000,1.417367,-1.625663,9.334992,14.133279,-10.402194,3.575833
1092000,1.484405,-1.628057,9.124303,14.484425,-12.707538,0.614001
1096000,1.561020,-1.575385,9.124303,14.469157,-11.272423,-1.889816
1100000,1.237802,-1.570596,8.884883,13.293585,-9.776240,-3.218060
1104000,1.074997,-1.587356,8.932767,12.805035,-9.867843,-4.317297
1108000,0.885855,-1.620875,8.975863,12.621829,-7.058682,-3.859281
1112000,0.809240,-1.570596,8.645462,12.102745,-3.211354,-3.111190
1116000,0.706290,-1.575385,8.511387,10.957706,0.086356,-2.424167
1120000,0.639252,-1.462857,8.236053,8.881371,3.490936,-1.492869
1124000,0.486023,-1.544260,8.044518,6.347020,5.475669,-0.973785
1128000,0.581791,-1.467646,7.989451,4.728699,6.376432,-0.500503
1132000,0.586579,-1.498770,7.747637,3.049310,7.338264,-0.500503
1136000,0.553061,-1.465251,7.513005,1.156180,4.742845,-1.370732
1140000,0.490811,-1.515530,7.206547,-1.286568,3.826814,-1.172258
1144000,0.562637,-1.546654,7.445967,-3.011759,3.903150,-1.615006
1148000,0.296881,-1.668759,7.376535,-5.439240,-1.211354,-2.760045
1152000,0.289698,-1.917756,7.721301,-6.462141,-2.814408,-2.698976
1156000,0.220267,-1.939303,8.245630,-6.889622,-8.814408,-3.645541
1160000,0.272939,-2.087744,9.047688,-5.027026,-10.997614,-3.569205
1164000,0.339977,-2.279280,9.897630,-1.790385,-9.913645,-2.805846
1168000,0.184354,-2.324770,10.311827,2.652363,-10.997614,-2.698976
1172000,0.138864,-2.296039,10.496181,7.049310,-10.860209,-1.889816
1176000,0.134075,-2.370260,11.039664,12.759233,-9.760973,-1.141724
1180000,0.122104,-2.300828,10.623073,18.866104,-8.264790,0.461329
1184000,0.138864,-2.078167,10.247183,20.957708,-6.310591,1.530032
1188000,0.181959,-1.869871,9.646238,20.743967,-5.302957,2.843009
1192000,0.359130,-1.786075,9.358934,19.812670,-3.486163,3.789574
1196000,0.519542,-1.678335,9.016563,17.995874,-0.371659,4.155986
1200000,0.636858,-1.618480,8.817844,16.209616,2.926050,4.446063
1204000,0.785298,-1.570596,8.659827,13.965341,4.788646,3.942245
1208000,0.861913,-1.522712,8.549694,12.362287,7.964219,3.774307
1212000,0.651223,-1.529895,8.259995,11.324119,10.284829,3.362093
1216000,0.495600,-1.534683,7.977480,9.950073,8.498569,2.552932
1220000,0.404620,-1.515530,7.862558,8.347020,5.292463,1.301024
1224000,0.351948,-1.589750,7.742848,6.942440,2.391699,0.644536
1228000,0.148441,-1.431733,7.570466,5.537859,-0.646469,0.278123
1232000,0.088585,-1.517924,7.223307,4.011142,-3.135018,0.430795
1236000,0.016759,-1.355118,6.974309,1.369921,-6.554865,0.415528
1240000,0.043096,-1.331176,6.691794,-1.591912,-7.730438,1.133085
1244000,-0.016759,-1.288081,6.818686,-5.393438,-10.524332,1.331558
1248000,0.057461,-1.364695,6.842628,-9.179698,-14.249522,1.896444
1252000,0.248997,-1.407791,7.156269,-12.263667,-14.906011,2.354459
1256000,0.447716,-1.575385,7.527370,-13.973592,-15.654102,2.843009
1260000,0.517148,-1.616086,8.090008,-14.340003,-14.585401,3.713238
1264000,0.624887,-1.604115,8.487445,-15.194964,-12.753339,5.117818
1268000,0.967257,-1.642422,9.085996,-15.500308,-9.760973,5.591101
1272000,1.082179,-1.774103,9.770737,-13.652980,-6.478529,5.850643
1276000,0.943315,-1.752556,10.474632,-10.263667,-6.951812,5.957513
1280000,1.199495,-1.798046,11.063606,-5.943057,-7.516697,5.545299
1284000,1.417367,-1.707066,11.281479,-2.110996,-7.669369,4.094917
1288000,1.541866,-1.833959,11.362882,1.736333,-5.531965,3.026215
1292000,1.608904,-1.833959,11.046846,7.843203,-0.463263,2.232322
1296000,1.525106,-1.793257,10.912771,11.049310,1.964218,0.552933
1300000,1.477222,-1.802834,10.955867,14.514958,4.376432,-1.141724
1304000,1.185130,-1.862689,10.764331,18.682898,6.300097,-1.935617
1308000,0.833182,-1.776498,10.577583,22.545494,10.132157,-2.164625
1312000,0.169988,-1.685518,10.007763,23.766869,0.177959,-3.920350
1316000,0.320823,-1.771709,9.844957,25.614197,-3.455629,-4.210426
1320000,0.390255,-1.793257,9.636662,27.812670,-2.112118,-3.920350
1324000,0.026336,-1.783680,9.232041,29.675264,-0.249522,-2.393632
1328000,-0.284910,-1.644817,8.573636,28.866104,-5.913644,-2.561571
1332000,-0.088585,-1.546654,8.257602,26.484425,-5.486163,-0.576838
1336000,-0.033519,-1.493982,8.116343,24.316486,-2.860209,1.560566
1340000,0.081403,-1.450886,8.008605,21.995876,-0.371659,3.010948
1344000,0.241814,-1.412579,7.884106,20.179081,3.658875,4.400261
1348000,0.383072,-1.343147,7.711724,17.705799,6.635974,5.453696
1352000,0.497994,-1.211466,7.649475,14.118012,9.277195,6.003314
1356000,0.356736,-1.182736,7.455544,10.514958,11.765745,6.873543
1360000,0.289698,-1.197101,7.213730,6.209615,13.658875,7.896444
1364000,0.287304,-1.091756,7.323863,1.492058,11.597806,8.675070
1368000,0.586579,-1.072602,7.560889,0.209615,10.895515,9.133085
1372000,0.816423,-1.118092,7.692570,-1.011759,7.109257,8.552932
1376000,1.312023,-1.206678,7.924808,-3.133896,8.666508,8.415527
1380000,1.501164,-1.211466,8.317456,-3.225499,12.376431,7.560566
1384000,1.340753,-1.163582,8.257602,-3.042293,7.185593,5.728505
1388000,1.680730,-1.168370,8.475474,-0.477408,8.574905,4.827742
1392000,1.735796,-1.132457,8.798691,0.805035,4.132157,2.003314
1396000,1.836353,-1.173159,8.930372,2.484425,5.185593,-0.164625
1400000,1.661576,-1.197101,8.899248,4.240149,4.239028,-2.515770
1404000,1.326388,-1.240196,8.815451,5.018775,0.437501,-5.187525
1408000,1.110910,-1.367089,8.894460,5.980608,-2.264789,-6.836380
1412000,0.739808,-1.455675,9.018958,6.881371,-7.440361,-8.744778
1416000,0.464475,-1.508347,8.899248,8.087478,-11.699904,-10.256228
1420000,0.191536,-1.515530,8.853758,9.049310,-14.035782,-10.775312
1424000,0.014365,-1.628057,8.784326,9.873737,-15.165553,-10.546305
1428000,-0.210690,-1.640028,8.597578,9.934806,-16.218988,-10.011953
1432000,-0.272939,-1.687912,8.489840,9.186714,-16.814407,-8.760045
1436000,-0.351948,-1.663970,8.406042,8.224882,-15.669370,-6.790579
1440000,-0.328006,-1.594538,8.286332,7.049310,-14.341125,-4.836380
1444000,-0.141258,-1.608904,8.307879,6.133279,-11.302958,-2.714243
1448000,0.095768,-1.448492,8.283937,4.682898,-6.447995,-1.187526
1452000,0.153229,-1.405396,8.109161,2.621829,-3.012881,0.507131
1456000,0.282516,-1.386243,8.226477,1.064577,-1.180820,2.079650
1460000,0.529119,-1.472434,8.276755,0.148546,-0.646469,2.751406
1464000,0.627281,-1.417367,8.209718,-0.126262,0.147424,3.362093
1468000,0.823605,-1.343147,8.027759,-0.828552,0.819180,3.117818
1472000,0.799663,-1.187524,7.841011,-2.477408,0.529104,2.583467
1476000,0.931344,-1.278504,7.750031,-2.965957,3.292463,2.843009
1480000,0.804452,-1.165976,7.541735,-3.714049,0.895516,1.530032
1484000,0.603339,-1.180341,7.232883,-4.569011,-2.890743,0.415528
1488000,0.466869,-1.240196,7.414843,-5.698782,-5.699903,-0.027220
1492000,0.368707,-1.273715,7.465121,-6.782751,-9.745706,-0.927984
1496000,0.397437,-1.333570,7.668628,-7.637713,-13.577766,-1.111190
1500000,0.416591,-1.388637,7.838616,-8.294202,-15.501431,-0.698976
1504000,0.402226,-1.486799,8.319851,-7.958323,-16.173185,-0.103556
1508000,0.507571,-1.477222,8.748413,-6.981225,-14.768606,0.904078
1512000,0.742203,-1.460463,8.803479,-6.080462,-12.570133,1.591100
1516000,0.622492,-1.446098,8.851364,-5.591911,-11.455629,1.728505
1520000,0.639252,-1.355118,8.619126,-5.561378,-10.890744,2.201787
1524000,0.749385,-1.247379,8.544906,-6.019393,-11.501431,1.820108
1528000,0.895431,-1.235408,8.528147,-5.881988,-11.455629,1.331558
1532000,0.926556,-1.233014,8.532935,-6.889622,-11.913645,0.476597
1536000,0.897826,-1.242591,8.439561,-6.813286,-9.318225,0.629268
1540000,1.007959,-1.283292,8.568848,-7.775118,-4.799140,0.430795
1544000,0.723049,-1.292869,8.611943,-8.523210,-5.699903,-0.485235
1548000,0.536301,-1.400608,8.734048,-8.904889,-7.028148,0.186520
1552000,0.653617,-1.584962,9.325416,-6.492675,-3.867843,1.148352
1556000,0.380678,-1.532289,9.157822,-4.431606,-5.883110,1.209421
1560000,0.550666,-1.493982,9.165004,-1.927789,-6.310591,1.972780
1564000,0.514753,-1.565808,9.205706,-0.859087,-8.799141,2.033848
1568000,0.586579,-1.556231,9.325416,1.018775,-11.058682,1.697971
1572000,0.574608,-1.599327,9.471462,2.606562,-12.799141,1.178887
1576000,0.603339,-1.628057,9.734824,3.766867,-12.020514,2.049116
1580000,0.608127,-1.666364,9.967062,5.385188,-9.974713,3.072016
1584000,0.656011,-1.637634,9.885659,7.247783,-7.440361,4.201787
1588000,0.672771,-1.549049,9.763555,8.148546,-7.486163,5.377360
1592000,0.883460,-1.520318,9.768343,8.224882,-4.707537,6.217055
1596000,1.185130,-1.393425,9.643845,8.377554,-1.974713,6.736139
1600000,1.388637,-1.323994,9.660604,8.102745,2.773379,7.407895
1604000,1.611298,-1.290475,9.550470,8.133280,6.620707,7.285757
1608000,1.747767,-1.182736,9.457097,8.224882,8.010019,6.522398
1612000,1.860295,-1.082179,9.085996,7.843203,9.506203,5.453696
1616000,1.896208,-0.998382,9.047688,7.476791,12.269562,4.323925
1620000,1.671153,-1.034295,8.956709,6.972974,13.643607,3.087284
1624000,1.592144,-1.041478,8.698134,7.018775,14.788646,2.262856
1628000,1.462857,-1.048660,8.652645,7.293585,15.170325,1.072016
1632000,1.300052,-1.120486,8.403648,7.568394,14.391699,-0.073022
1636000,1.199495,-1.134852,8.279149,7.171447,12.040554,-0.866915
1640000,0.914585,-1.199495,8.161834,5.751600,6.803913,-2.714243
1644000,0.952892,-1.256956,7.929596,7.186714,6.483303,-2.683709
1648000,0.725443,-1.237802,7.819463,6.347020,2.849715,-3.844014
1652000,0.588974,-1.247379,7.800309,5.156180,-1.715171,-4.805846
1656000,0.560243,-1.422156,7.678205,4.805035,-4.875476,-5.126457
1660000,0.433351,-1.391031,7.718906,4.576027,-8.127385,-5.798213
1664000,0.308852,-1.405396,7.807492,4.026409,-12.096850,-5.737144
1668000,0.201113,-1.450886,7.891289,2.621829,-15.928912,-5.935617
1672000,0.146046,-1.446098,8.125920,1.751600,-18.921278,-5.492869
1676000,0.134075,-1.470040,8.238448,0.331753,-18.402195,-3.905083
1680000,0.567426,-1.539472,8.743625,1.369921,-9.089217,-1.447067
1684000,0.557849,-1.534683,8.667010,1.049310,-5.257155,-0.286762
1688000,0.711078,-1.405396,8.537724,0.667630,-1.058682,0.843009
1692000,0.854730,-1.410185,8.564059,0.331753,4.254295,2.293390
1696000,0.828394,-1.283292,8.530540,-0.217866,7.521471,3.270490
1700000,0.909797,-1.256956,8.305486,-1.149163,9.307730,4.308658
1704000,1.063026,-1.350330,8.374918,-2.095728,10.803913,4.247589
1708000,1.252167,-1.369483,8.556877,-3.072828,10.513836,3.621635
1712000,1.304840,-1.338359,8.535329,-3.210232,11.384066,3.010948
1716000,1.414973,-1.376666,8.786720,-2.904888,14.452767,2.430795
1720000,1.563414,-1.326388,8.906430,-2.477408,14.010019,0.171253
1724000,1.300052,-1.422156,9.030929,-2.675881,12.544371,-2.332564
1728000,1.137246,-1.455675,9.136273,-2.202598,11.490935,-4.103556
1732000,0.644040,-1.515530,8.894460,-1.851454,10.193226,-4.927983
1736000,0.363919,-1.527501,8.774749,-1.851454,8.758111,-4.698976
1740000,0.090980,-1.501164,8.769960,-1.683514,5.567272,-4.073022
1744000,0.102951,-1.570596,8.669404,-0.110996,3.277195,-3.279129
1748000,0.059855,-1.501164,8.492233,1.476791,0.880249,-2.347831
1752000,0.148441,-1.343147,8.264784,1.659997,-2.371660,-2.103556
1756000,0.272939,-1.268927,8.370130,1.446256,-5.073949,-1.630274
1760000,0.392649,-1.256956,8.394072,1.522592,-6.539598,-1.156991
1764000,0.392649,-1.235408,8.310274,1.659997,-6.539598,-0.271495
1768000,0.677559,-1.182736,8.219295,1.125646,-4.799140,0.384994
1772000,0.864307,-1.094150,8.171411,0.453890,0.330631,1.591100
1776000,0.644040,-0.991199,7.797915,-2.446873,-3.501430,0.003314
1780000,0.859518,-0.948104,7.714118,-3.683514,-3.180820,0.110184
1784000,0.833182,-0.928950,7.603985,-5.256034,-2.844942,0.430795
1788000,0.696713,-0.931344,7.666234,-6.416339,-6.738071,-0.515770
1792000,0.897826,-1.091756,8.025364,-6.950690,-8.722805,-0.912716
1796000,0.979228,-1.137246,8.386889,-6.843820,-5.486163,-1.095922
1800000,0.842759,-1.086968,8.465898,-7.164431,-5.180820,-1.309663
1804000,0.672771,-1.201889,8.667010,-6.736950,-3.669369,-0.653174
1808000,0.610521,-1.247379,8.671799,-5.759851,-1.669369,0.659803
1812000,0.497994,-1.276109,8.765172,-4.675881,-1.928911,1.988047
1816000,0.672771,-1.223437,8.743625,-3.729316,-2.906011,2.690337
1820000,0.926556,-1.189918,8.832211,-3.164430,-4.906011,2.904078
1824000,1.094150,-1.113304,8.889671,-1.820919,-6.081583,2.873543
1828000,1.213860,-1.043872,8.961497,-0.462140,-6.310591,2.614001
1832000,1.379060,-1.125275,8.992621,0.621829,-5.348759,2.476597
1836000,1.489193,-1.089362,9.004593,0.087478,-4.249522,1.988047
1840000,1.493982,-1.146823,8.906430,0.255417,-0.753339,2.293390
1844000,1.510741,-1.189918,8.887277,0.240150,1.078722,1.621635
1848000,1.486799,-1.264138,9.016563,-0.721682,2.895516,1.255223
1852000,1.496376,-1.300052,8.959103,0.682898,2.910783,0.400261
1856000,1.632846,-1.259350,9.105149,1.018775,4.529104,-0.576838
1860000,1.572991,-1.290475,9.040505,1.430989,3.994753,-2.302029
1864000,1.398214,-1.345541,8.942344,1.614195,4.116890,-3.340197
1868000,1.314417,-1.340753,8.968679,1.583661,4.803913,-4.607373
1872000,1.051055,-1.316811,8.839393,1.614195,5.460402,-5.492869
1876000,0.780510,-1.431733,8.688558,2.377554,5.964219,-5.676075
1880000,0.622492,-1.498770,8.585608,2.759233,5.628341,-5.508136
1884000,0.354342,-1.479617,8.401254,2.682898,4.849715,-4.790579
1888000,0.363919,-1.460463,8.204929,1.171447,5.429867,-4.088289
1892000,0.390255,-1.429338,8.094796,-0.599545,6.697043,-3.309663
1896000,0.150835,-1.431733,8.020576,-2.996492,8.697042,-1.615006
1900000,0.102951,-1.450886,7.898471,-5.378171,10.101623,-0.057755
1904000,0.201113,-1.424550,7.963115,-7.500309,8.926050,0.690337
1908000,0.474052,-1.295263,8.056489,-7.790385,9.796279,1.682703
1912000,0.667982,-1.359907,8.003817,-8.507942,9.353531,1.804841
1916000,0.653617,-1.364695,8.365341,-7.637713,11.628340,1.682703
1920000,0.450110,-1.331176,8.044518,-8.981225,5.155058,0.262856
1924000,0.687136,-1.424550,8.293514,-9.454507,3.918417,0.293391
1928000,0.624887,-1.422156,8.676587,-10.721683,1.552005,0.033849
1932000,0.931344,-1.470040,8.774749,-9.591911,2.544371,0.400261
1936000,0.943315,-1.467646,9.169792,-8.584278,2.300096,-0.134090
1940000,1.280898,-1.599327,9.085996,-7.042294,2.483302,-1.050121
1944000,1.209072,-1.515530,9.117120,-5.332370,3.750478,-2.546304
1948000,1.007959,-1.551443,9.002198,-4.294202,1.811547,-3.447068
1952000,0.778116,-1.551443,8.880095,-3.408705,-0.203721,-4.011953
1956000,0.596156,-1.575385,8.851364,-3.072828,-2.768606,-4.286762
1960000,0.648829,-1.640028,8.992621,-2.294202,-4.356392,-3.844014
1964000,0.804452,-1.745373,9.447520,-0.416339,-3.928911,-3.385999
1968000,0.955287,-1.728614,9.646238,1.568394,-2.035782,-2.714243
1972000,0.931344,-1.692701,9.488221,3.476791,0.422234,-2.424167
1976000,0.957681,-1.663970,9.327810,4.392821,1.948951,-2.363098
1980000,1.024718,-1.582567,9.210494,4.759233,2.956585,-2.500503
1984000,1.266533,-1.470040,8.987833,4.896638,4.086356,-3.095922
1988000,1.350330,-1.460463,8.939949,5.263051,4.040555,-4.408900
1992000,1.264138,-1.429338,8.892065,5.369921,2.758112,-6.256227
1996000,1.381454,-1.364695,8.832211,5.675264,3.506203,-6.989052
