time_us,ax,ay,az,gx,gy,gz
0,-0.404620,-0.840365,8.331821,-1.530843,-0.967079,-0.225693
4000,-0.383072,-0.952892,8.439561,-1.775118,-1.516698,-0.378365
8000,-0.418985,-0.926556,8.331821,-2.248400,-1.684637,-0.103556
12000,-0.366313,-0.826000,8.362947,-2.584278,-1.776240,-0.027220
16000,-0.256180,-0.794875,8.422802,-3.179698,-1.119751,0.033849
20000,-0.201113,-0.785298,8.532935,-3.103362,-0.081583,0.018581
24000,-0.079009,-0.857124,8.667010,-2.996492,1.261928,-0.073022
28000,-0.114922,-0.835576,8.614338,-2.996492,1.613073,-0.683709
32000,-0.256180,-0.821211,8.667010,-2.736950,0.956585,-1.126457
36000,-0.304064,-0.833182,8.556877,-2.660614,0.513837,-1.676075
40000,-0.423774,-0.926556,8.580819,-2.553744,-0.127385,-2.011953
44000,-0.598550,-0.938527,8.511387,-2.767484,-0.600667,-1.889816
48000,-0.691924,-0.995988,8.602366,-2.736950,-1.928911,-1.859281
52000,-0.641646,-0.993594,8.798691,-2.630080,-2.844942,-1.218060
56000,-0.691924,-1.024718,8.892065,-2.187331,-3.165553,-0.637907
60000,-0.600945,-1.077391,8.911219,-1.820919,-2.799140,-0.088289
64000,-0.507571,-1.110910,8.892065,-1.576644,-1.654102,0.415528
68000,-0.387861,-1.024718,8.825027,-1.714049,-0.585400,0.843009
72000,-0.306458,-1.036689,8.796297,-1.439240,0.391699,1.133085
76000,-0.134075,-1.007959,8.896853,-0.874354,1.155058,0.797207
80000,-0.093374,-0.981623,8.930372,0.026409,2.422234,0.262856
84000,-0.011971,-0.914585,8.808268,0.713432,3.170325,-0.393632
88000,-0.090980,-0.826000,8.896853,1.140913,3.674142,-1.172258
92000,-0.213084,-0.835576,8.686164,0.988241,3.552005,-1.828747
96000,-0.418985,-0.780510,8.760384,1.110379,3.063455,-2.179892
100000,-0.495600,-0.761356,8.729259,1.064577,2.284829,-2.347831
104000,-0.581791,-0.694318,8.674192,0.942440,2.116890,-2.225693
108000,-0.706290,-0.679953,8.532935,0.576027,2.437501,-1.966151
112000,-0.802058,-0.634463,8.422802,-0.141530,2.620707,-1.615006
116000,-0.818817,-0.598550,8.382100,-0.706415,2.803913,-1.034854
120000,-0.840365,-0.593762,8.209718,-1.637713,2.406966,-0.714243
124000,-1.051055,-0.644040,8.327033,-2.691148,2.177959,-0.149358
128000,-0.926556,-0.632069,8.353370,-3.881988,1.078722,0.155986
132000,-0.926556,-0.627281,8.485051,-4.080462,0.544371,0.568200
136000,-0.905008,-0.675165,8.604761,-4.187331,0.132157,0.736139
140000,-0.919373,-0.749385,8.798691,-3.943056,-0.554866,0.736139
144000,-0.804452,-0.818817,8.908825,-2.859087,2.269562,1.575833
148000,-1.079785,-0.768539,8.815451,-3.225499,-1.211354,0.843009
152000,-0.933739,-0.713472,8.932767,-2.569010,1.093989,1.652169
156000,-1.003170,-0.646434,8.863335,-2.859087,1.735211,2.247589
160000,-1.051055,-0.524330,8.846576,-2.752217,0.926050,2.476597
164000,-0.921768,-0.450110,8.712500,-2.645346,1.093989,2.949879
168000,-0.981623,-0.287304,8.698134,-2.859087,0.773379,3.056749
172000,-0.950498,-0.213084,8.676587,-3.317102,0.941318,3.545299
176000,-0.919373,-0.107739,8.645462,-3.515576,0.376432,3.743773
180000,-0.849942,-0.007183,8.568848,-3.607178,1.368798,4.155986
184000,-0.842759,0.067038,8.662222,-3.927789,0.895516,3.789574
188000,-0.878672,0.079009,8.590396,-4.172065,-0.081583,4.049116
192000,-0.720655,0.088585,8.571242,-4.156797,-1.348759,3.774307
196000,-0.557849,0.143652,8.645462,-4.736950,-1.623568,3.301024
200000,-0.464475,0.146046,8.714894,-5.225499,-1.577766,2.812474
204000,-0.371101,0.146046,8.832211,-5.317102,-0.631201,2.461329
208000,-0.244209,0.165200,8.767567,-4.904889,-1.241889,1.423162
212000,-0.237026,0.227449,8.789114,-4.477407,0.269562,0.644536
216000,-0.397437,0.227449,8.877700,-4.843820,-1.394560,-0.714243
220000,-0.414197,0.189142,8.678981,-5.103362,-1.837308,-1.202793
224000,-0.423774,0.165200,8.918402,-4.965958,1.918417,-0.408900
228000,-0.629675,0.351948,8.968679,-7.576645,-2.341125,-1.782945
232000,-0.299275,0.304064,9.026140,-6.935423,-3.302957,-1.584472
236000,0.052672,0.411803,9.576807,-5.378171,8.193226,0.323925
240000,-0.864307,0.574608,9.188946,-8.859087,-4.570133,-3.340197
244000,-0.418985,0.514753,9.215282,-10.049927,-7.715171,-3.523403
248000,-0.392649,0.481235,9.471462,-10.401072,-6.295323,-3.813480
252000,-0.373495,0.524330,9.603143,-9.729317,-4.753339,-3.538671
256000,-0.392649,0.562637,9.868899,-9.958323,-7.089217,-4.240961
260000,-0.409408,0.553061,9.995792,-9.622446,-8.921278,-4.653174
264000,-0.220267,0.555455,10.256760,-8.843820,-5.822041,-4.500503
268000,-0.136469,0.557849,10.273520,-8.965958,-3.073950,-4.439434
272000,-0.222661,0.624887,10.352529,-9.301835,-1.959446,-4.439434
276000,-0.153229,0.651223,10.338163,-9.973591,-1.516698,-4.958518
280000,-0.253785,0.658405,10.333375,-9.775118,-0.646469,-5.126457
284000,-0.308852,0.720655,10.362105,-10.049927,-0.844942,-5.355464
288000,-0.361524,0.761356,10.481815,-10.523210,-2.096850,-5.981419
292000,-0.361524,0.790087,10.802638,-10.340003,-2.585400,-6.103556
296000,-0.304064,0.811634,10.977415,-9.729317,-0.677003,-6.134090
300000,-0.452504,0.746991,11.183316,-8.920156,-1.837308,-7.126457
304000,-0.418985,0.773327,11.231200,-8.110995,-0.799140,-7.126457
308000,-0.557849,0.847547,11.264719,-7.210233,1.032921,-7.263861
312000,-0.713472,0.840365,11.075577,-6.355270,1.490936,-8.317297
316000,-0.852336,0.773327,10.912771,-5.133897,0.086356,-8.698977
320000,-0.814029,0.794875,10.697293,-4.202599,0.529104,-9.385999
324000,-0.854730,0.670376,10.381259,-3.088094,-0.524331,-10.256228
328000,-0.893037,0.526724,10.156203,-2.599545,0.345898,-10.240961
332000,-1.122881,0.500388,9.801862,-2.813286,-4.554865,-12.408900
336000,-1.098939,0.383072,9.540894,-2.874354,-3.806774,-11.981419
340000,-1.070208,0.287304,9.854534,-3.546110,-3.165553,-12.637908
344000,-1.130063,0.239420,9.622296,-3.301835,-3.974713,-13.538671
348000,-1.072602,0.270545,9.483433,-2.798018,-2.692270,-14.195160
352000,-1.019930,0.318429,9.205706,-3.347636,1.093989,-15.233328
356000,-1.211466,0.375890,9.069236,-5.088095,1.307730,-15.767678
360000,-1.288081,0.409408,8.882488,-6.217866,1.964218,-16.134090
364000,-1.398214,0.435745,8.772355,-7.591911,0.330631,-16.958517
368000,-1.498770,0.531513,8.638280,-9.454507,-2.157919,-17.279127
372000,-1.584962,0.646434,8.690952,-10.874354,-4.554865,-17.309662
376000,-1.620875,0.639252,8.961497,-11.652981,-6.570133,-17.034853
380000,-1.515530,0.763750,9.143456,-11.607179,-8.218987,-15.935617
384000,-1.292869,0.828394,9.011775,-11.927790,-8.921278,-15.599740
388000,-1.019930,0.933739,8.956709,-11.027026,-4.951812,-14.790579
392000,-1.034295,1.015141,8.676587,-11.439240,-4.341125,-14.637908
396000,-1.074997,1.043872,8.444349,-12.981225,-5.394560,-14.683709
400000,-1.074997,1.029507,8.379706,-15.546111,-8.509065,-14.927984
404000,-1.058237,1.079785,8.465898,-18.004124,-10.386927,-14.912717
408000,-0.933739,0.991199,8.592790,-19.530842,-12.478530,-14.943251
412000,-0.708684,1.027112,8.683769,-20.599545,-13.547233,-15.187526
416000,-0.533907,1.096544,8.738836,-21.759850,-13.852576,-16.088289
420000,-0.320823,1.132457,8.671799,-22.340002,-14.738072,-17.202791
424000,-0.253785,1.199495,8.731653,-22.996490,-17.211355,-18.439434
428000,-0.134075,1.051055,8.609550,-21.729315,-18.585400,-19.920349
432000,0.117316,1.063026,8.872911,-23.301834,-21.272423,-22.011953
436000,0.301669,1.041478,8.664616,-22.660612,-22.417461,-23.920349
440000,0.653617,0.893037,8.669404,-22.355270,-21.119751,-25.324930
444000,0.447716,0.718261,8.736442,-21.775116,-20.402195,-27.111189
448000,0.215478,0.517148,8.726865,-22.187330,-22.554867,-28.271494
452000,0.059855,0.251391,8.693346,-22.996490,-23.531965,-28.027220
456000,-0.155623,0.038307,8.844181,-24.095728,-24.875477,-27.553938
460000,-0.191536,-0.177171,8.906430,-25.088095,-24.524332,-25.966150
464000,-0.301669,-0.361524,8.937555,-26.065193,-23.989981,-25.019587
468000,-0.557849,-0.579397,8.762778,-27.301834,-24.951813,-23.615005
472000,-0.727837,-0.634463,8.817844,-28.874355,-25.318224,-21.248594
476000,-0.912191,-0.835576,8.803479,-31.927788,-26.844942,-18.821114
480000,-0.976834,-1.005565,8.762778,-31.897255,-28.890743,-16.912716
484000,-1.103727,-1.149217,8.609550,-31.164429,-28.768606,-13.645541
488000,-1.407791,-1.192312,8.561666,-30.614811,-32.463264,-10.775312
492000,-1.333570,-1.304840,8.566454,-30.110996,-36.188454,-7.050121
496000,-1.072602,-1.383849,8.817844,-28.065193,-35.486164,-3.523403
500000,-1.132457,-1.549049,8.798691,-25.607178,-33.425095,0.629268
504000,-0.919373,-1.491588,8.681376,-23.225498,-31.577766,4.018581
508000,-0.780510,-1.489193,8.489840,-21.668247,-30.432728,7.713238
512000,-0.691924,-1.493982,8.437167,-19.698780,-29.989981,10.461329
516000,-0.560243,-1.467646,8.396465,-18.004124,-30.341125,13.117818
520000,-0.407014,-1.450886,8.238448,-17.500307,-30.554867,15.163619
524000,0.016759,-1.446098,8.135497,-18.004124,-30.325859,17.026215
528000,0.474052,-1.335965,8.022970,-18.981224,-29.104485,18.369726
532000,0.981623,-1.242591,7.996634,-19.439240,-27.822042,18.384995
536000,1.738190,-1.151611,8.252813,-20.095728,-25.791508,17.667437
540000,2.624045,-1.089362,8.386889,-20.187330,-21.715172,14.583467
544000,3.313575,-1.086968,8.372523,-19.118628,-16.539598,10.003314
548000,3.581726,-1.082179,8.226477,-17.652979,-12.280057,4.186521
552000,3.529053,-1.091756,8.109161,-17.103361,-11.165553,-2.256228
556000,3.126827,-1.144428,7.733272,-17.301834,-17.837309,-8.912717
560000,3.330335,-1.379060,7.886500,-16.049927,-11.043416,-11.721877
564000,2.971204,-1.498770,7.936779,-15.332370,-4.692270,-14.088289
568000,2.566584,-1.616086,7.486669,-15.805652,1.032921,-14.729510
572000,2.214637,-1.812411,7.417237,-17.347635,5.872615,-14.989053
576000,1.771709,-2.085350,7.053318,-19.423971,8.666508,-14.195160
580000,1.304840,-2.322376,6.833052,-23.897255,10.345898,-12.744778
584000,1.156399,-2.683900,7.299921,-27.362904,10.742844,-11.095922
588000,0.854730,-2.901772,7.656657,-30.630077,11.368798,-8.500503
592000,0.691924,-3.110068,7.857770,-31.057560,11.475668,-5.553937
596000,0.921768,-3.423708,8.106767,-31.317101,13.750478,-2.347831
600000,1.017536,-3.596091,8.319851,-31.118629,19.811546,1.209421
604000,1.082179,-3.926491,8.042124,-30.294201,22.239027,3.621635
608000,1.149217,-4.015076,7.785944,-29.027027,23.063456,5.911711
612000,1.230620,-4.115633,7.556100,-27.912521,25.674141,7.362093
616000,1.189918,-4.326323,7.417237,-27.943056,23.933683,8.171253
620000,1.149217,-4.383783,7.101202,-27.775116,20.727577,8.843008
624000,1.240196,-4.809951,7.003040,-26.355270,19.964218,9.835375
628000,1.151611,-4.999093,6.780379,-25.988857,19.093988,10.827742
632000,1.209072,-5.260061,6.567295,-24.889620,19.093988,12.629268
636000,1.233014,-5.336676,6.557718,-25.607178,13.826814,13.010947
640000,1.565808,-5.449203,6.476315,-26.798018,12.116890,14.308658
644000,2.171541,-5.465962,6.622362,-28.049927,10.666508,14.507131
648000,2.506729,-5.439626,6.447585,-28.492676,12.254294,14.644535
652000,2.844312,-5.425261,6.351817,-28.340004,13.307730,12.980413
656000,3.186682,-5.310339,6.208165,-28.813286,15.781012,10.201787
660000,3.679888,-5.216966,6.313510,-29.485039,24.681776,7.835375
664000,3.722984,-5.133168,6.200983,-30.828552,27.521469,3.377360
668000,3.785233,-5.173870,5.810728,-32.248398,26.681776,-2.790579
672000,4.187459,-5.135562,5.597643,-33.408703,33.322998,-8.134090
676000,3.931279,-5.164293,5.298368,-35.714046,30.651241,-16.805845
680000,4.077325,-5.114015,4.939238,-38.462139,32.468037,-24.485235
684000,3.986346,-5.341464,4.659117,-41.866718,36.941319,-32.836380
688000,3.718195,-5.389348,4.496311,-45.256031,38.071087,-42.073021
692000,3.172317,-5.825093,4.661511,-48.156796,34.834446,-50.851646
696000,2.592921,-6.016629,4.917690,-50.630077,28.803913,-59.996685
700000,1.999158,-6.399701,5.432444,-52.553741,21.414600,-67.996689
704000,1.467646,-6.883330,6.318298,-53.561375,12.269562,-75.401268
708000,0.751779,-7.108385,7.357382,-52.446873,4.300097,-80.973785
712000,0.316035,-7.671022,8.896853,-48.080460,1.002386,-85.309662
716000,-0.368707,-8.001422,9.394848,-38.263668,7.200860,-86.088287
720000,-1.060631,-8.157045,9.665392,-31.729317,11.093989,-86.897446
724000,-1.829170,-8.176199,10.031705,-25.744583,15.597805,-85.966148
728000,-2.693477,-8.492233,10.266336,-17.515575,20.406965,-83.859283
732000,-3.794810,-8.604761,10.275913,-9.668247,18.574905,-81.691345
736000,-4.553771,-8.714894,10.029311,-2.141530,17.521469,-77.370728
740000,-5.087678,-8.662222,9.643845,2.316485,14.910783,-72.973785
744000,-5.832275,-8.669404,9.313444,6.408089,10.468035,-67.126457
748000,-6.579266,-8.662222,9.294291,7.995874,2.452768,-60.897449
752000,-7.256825,-8.755595,9.244013,10.453890,-7.730438,-53.889816
756000,-7.618350,-8.729259,9.241618,12.988241,-18.738071,-44.515770
760000,-7.659051,-8.585608,9.330204,15.186714,-27.928911,-33.844013
764000,-7.570466,-8.305486,9.478644,16.682898,-35.669369,-22.332563
768000,-7.357382,-8.094796,9.761160,18.942440,-37.715172,-8.531037
772000,-7.158663,-7.319075,9.710882,18.072210,-42.402195,6.949879
776000,-5.829881,-7.156269,9.806650,18.377554,-43.760971,21.911713
780000,-4.335899,-6.739678,9.682152,21.369921,-39.196087,34.797207
784000,-2.375048,-5.954380,9.179369,24.133280,-29.135019,47.255222
788000,-1.146823,-5.181053,8.592790,25.629463,-24.829676,55.484230
792000,0.332794,-4.611232,8.030152,29.095112,-25.760973,60.659801
796000,1.893813,-3.967192,7.386112,26.347021,-28.829676,60.308659
800000,3.509900,-3.421314,7.168240,27.904272,-25.654102,57.530033
804000,4.668694,-3.014300,6.708553,30.927174,-24.112118,51.468964
808000,5.137957,-2.659958,6.639122,32.392822,-28.906012,41.575832
812000,5.784391,-2.202666,6.596025,36.469158,-30.249523,31.010948
816000,6.011840,-1.951274,6.392519,36.484425,-32.982346,18.583467
820000,6.174646,-1.898602,6.672640,39.690533,-23.913645,9.346826
824000,5.391742,-1.690306,6.564901,42.118011,-20.081583,0.949879
828000,4.560954,-1.587356,6.155493,43.522594,-20.127384,-5.676075
832000,4.055778,-1.529895,5.686229,41.598930,-18.768606,-9.889816
836000,3.722984,-1.503559,5.147533,38.621830,-20.051048,-14.027221
840000,3.361459,-1.362301,5.133168,31.034044,-14.997614,-15.294396
844000,3.014300,-1.438915,5.193024,28.728701,-8.402194,-15.187526
848000,2.585738,-1.319205,5.111620,22.728701,-3.730438,-14.225694
852000,2.403779,-1.312023,4.932055,19.782135,1.719944,-12.805846
856000,2.250550,-1.271321,5.070919,15.568394,8.987119,-10.729510
860000,1.968034,-1.326388,5.169082,11.293585,13.185592,-9.309663
864000,1.714248,-1.338359,5.535394,8.056944,15.277195,-7.859281
868000,1.496376,-1.448492,5.889736,5.003509,17.811546,-5.996686
872000,1.290475,-1.517924,6.198588,2.652363,22.025288,-3.676075
876000,0.806846,-1.508347,6.351817,-0.721682,19.857347,-2.485235
880000,0.591368,-1.613692,6.483498,-5.362904,14.834447,-1.111190
884000,0.766145,-1.738190,7.055712,-7.439240,20.819180,2.155986
888000,0.617704,-1.874660,7.515399,-10.080462,23.002386,4.537665
892000,0.703895,-1.984793,7.881712,-10.950690,23.719944,6.491864
896000,0.742203,-1.968034,8.331821,-12.278935,18.605440,6.736139
900000,0.849942,-2.099715,8.216900,-11.851454,11.964218,7.239955
904000,1.517924,-2.185906,8.863335,-9.683515,16.116890,7.209421
908000,1.364695,-2.164358,9.126697,-9.179698,13.216126,5.362093
912000,1.154005,-2.080561,8.978256,-7.744583,5.994753,2.736139
916000,1.412579,-2.169147,9.083601,-5.652981,4.788646,1.881177
920000,1.436521,-2.229002,9.679757,-3.515576,6.254295,1.468963
924000,1.264138,-2.308010,9.832987,-0.569010,5.979486,0.598734
928000,1.280898,-2.387019,9.995792,1.614195,5.399333,0.003314
932000,1.434127,-2.418144,10.158598,5.324119,7.903150,-0.134090
936000,1.505953,-2.398990,10.146626,6.820302,8.971851,-1.676075
940000,1.728614,-2.449268,9.864111,8.988241,16.071089,-2.347831
944000,1.496376,-2.442086,9.617508,9.583661,21.216125,-3.615006
948000,1.352724,-2.298434,9.145850,9.140913,24.864981,-4.866915
952000,1.077391,-2.281674,8.801085,8.301218,26.544371,-6.225693
956000,0.900220,-2.224213,8.810662,7.232516,28.697042,-6.790579
960000,0.404620,-2.353500,8.544906,5.659997,26.788645,-8.057755
964000,0.124498,-2.255338,8.202535,5.354653,24.284828,-8.805846
968000,-0.026336,-2.401384,8.209718,4.805035,24.437500,-8.851648
972000,-0.375890,-2.348712,7.884106,3.308852,24.071089,-8.729510
976000,-0.584185,-2.398990,7.728483,1.201982,22.956585,-8.408899
980000,-0.926556,-2.523489,7.793127,-1.378171,18.300097,-8.439434
984000,-1.142034,-2.655170,7.922413,-3.133896,14.773378,-7.111189
988000,-1.426944,-2.779668,8.276755,-3.668247,10.040554,-5.401266
992000,-1.398214,-2.930503,8.530540,-3.149163,4.544371,-3.126457
996000,-1.218649,-2.916138,8.860941,-2.553744,0.162692,-1.202793
1000000,-0.885855,-2.894590,9.050082,-3.591912,-3.394560,0.155986
1004000,-0.421380,-2.851494,9.181764,-3.836186,-5.425095,0.797207
1008000,-0.205901,-2.822764,9.263166,-3.317102,-6.829675,1.239955
1012000,-0.071826,-2.784456,9.248801,-2.813286,-7.715171,1.850642
1016000,0.210690,-2.705448,9.428367,-2.736950,-7.791507,2.232322
1020000,0.538695,-2.722207,9.639056,-2.660614,-6.783873,2.155986
1024000,0.782904,-2.717419,9.694122,-1.866720,-3.043415,1.850642
1028000,0.861913,-2.743755,9.646238,-1.057560,1.490936,1.255223
1032000,0.878672,-2.628834,9.531317,-0.859087,7.765746,0.537665
1036000,0.653617,-2.583344,9.411607,0.301218,8.758111,-1.523403
1040000,0.392649,-2.628834,8.808268,0.499691,5.719944,-3.447068
1044000,0.363919,-2.602497,8.530540,0.835569,5.200860,-4.760045
1048000,0.146046,-2.506729,8.396465,0.499691,2.956585,-6.179892
1052000,-0.071826,-2.638410,8.099585,0.499691,-0.493797,-7.126457
1056000,-0.155623,-2.667141,7.972692,0.698165,-2.997614,-8.027221
1060000,-0.239420,-2.650381,7.663840,0.072211,-5.806774,-9.202793
1064000,-0.402226,-2.612074,7.412448,-1.164430,-8.677003,-9.905083
1068000,-0.509965,-2.573767,7.285556,-3.103362,-10.096850,-9.691342
1072000,-0.615310,-2.518700,7.335834,-4.507942,-10.997614,-8.760045
1076000,-0.603339,-2.542642,7.149086,-5.423973,-12.982347,-8.195159
1080000,-0.471658,-2.449268,6.931214,-6.340003,-13.776240,-7.279129
1084000,-0.402226,-2.420538,6.876147,-8.507942,-14.677003,-6.805846
1088000,-0.201113,-2.365471,6.957550,-11.225499,-16.524332,-6.637907
1092000,0.021548,-2.394202,7.283162,-12.950690,-16.738071,-7.218060
1096000,-0.074220,-2.418144,7.603985,-13.958323,-15.684637,-7.279129
1100000,0.014365,-2.475605,7.807492,-14.874354,-14.325858,-7.248594
1104000,0.023942,-2.552219,7.903260,-16.263666,-13.012881,-7.355464
1108000,-0.038307,-2.511518,7.994239,-17.530842,-11.547233,-7.248594
1112000,-0.045490,-2.676718,8.370130,-18.034658,-10.157920,-6.882182
1116000,-0.227449,-2.755726,8.568848,-17.881987,-10.218988,-6.240961
1120000,-0.342371,-2.861071,8.750807,-16.813284,-12.081584,-6.011953
1124000,-0.172383,-2.923320,9.035717,-15.866721,-13.852576,-5.828747
1128000,-0.098162,-3.033453,9.375694,-15.256034,-14.005248,-5.645541
1132000,-0.122104,-3.167529,9.512163,-13.240767,-14.081584,-5.095922
1136000,-0.110133,-3.263297,9.792285,-10.630079,-13.562500,-3.966152
1140000,-0.059855,-3.181894,9.952697,-8.462141,-12.768606,-3.095922
1144000,0.256180,-3.253720,9.842564,-6.004126,-10.906011,-2.958518
1148000,0.282516,-3.213019,9.844957,-3.561377,-9.364026,-3.340197
1152000,0.265756,-3.196259,9.686940,0.408088,-7.608301,-3.202793
1156000,0.265756,-3.074155,9.514558,3.690531,-6.554865,-3.615006
1160000,0.344765,-2.935291,9.313444,6.377554,-5.165553,-4.149358
1164000,0.150835,-2.858677,8.918402,8.148546,-4.463263,-4.989052
1168000,0.021548,-2.849100,8.396465,9.446257,-4.463263,-5.340197
1172000,-0.222661,-2.719813,8.147469,9.782134,-5.654102,-5.187525
1176000,-0.296881,-2.657564,7.958326,9.385188,-6.554865,-4.851647
1180000,-0.325611,-2.679112,7.762002,8.102745,-7.073949,-4.286762
1184000,-0.402226,-2.750938,7.872135,6.270684,-7.196087,-3.584472
1188000,-0.308852,-2.712631,7.972692,4.789768,-7.241889,-2.744777
1192000,-0.363919,-2.731784,8.271967,3.095111,-7.257155,-1.599739
1196000,-0.265756,-2.777274,8.315063,1.507325,-7.257155,-0.317297
1200000,-0.088585,-2.803610,8.492233,0.041676,-5.486163,0.888810
1204000,0.083797,-2.767697,8.643068,-0.950690,-3.119751,2.064383
1208000,0.107739,-2.784456,8.683769,-1.698782,0.162692,3.072016
1212000,0.179565,-2.722207,8.518570,-1.622446,2.605440,3.514765
1216000,0.227449,-2.755726,8.489840,-1.103362,4.101623,4.217055
1220000,0.191536,-2.691083,8.544906,-1.759850,6.773379,4.888811
1224000,0.201113,-2.659958,8.559271,-3.088094,8.040554,5.820108
1228000,0.191536,-2.681506,8.710106,-3.485041,7.811547,6.614001
1232000,0.330400,-2.719813,9.002198,-3.027026,8.132157,7.804841
1236000,0.572214,-2.741361,9.251195,-1.851454,10.544371,8.659802
1240000,0.737414,-2.671929,9.220071,-0.385804,12.926050,9.377359
1244000,0.811634,-2.612074,9.109938,0.423356,14.468035,9.087283
1248000,0.926556,-2.530671,9.064447,0.789768,15.887882,8.354459
1252000,1.000776,-2.540248,8.963891,1.446256,16.651241,7.377360
1256000,0.888249,-2.564190,8.963891,1.614195,17.017653,6.446063
1260000,0.739808,-2.504335,8.853758,1.782134,17.139790,5.804841
1264000,0.684742,-2.540248,8.690952,1.934806,16.376432,4.476597
1268000,0.622492,-2.573767,8.662222,2.606562,15.628340,2.995681
1272000,0.519542,-2.564190,8.599973,3.553127,14.391699,1.209421
1276000,0.402226,-2.451663,8.501810,4.637096,12.773378,-0.378365
1280000,0.129287,-2.489970,8.339005,4.942440,10.727577,-1.706609
1284000,-0.074220,-2.609680,8.219295,5.217249,8.468035,-2.195159
1288000,-0.083797,-2.566584,8.173804,4.972974,6.651241,-2.347831
1292000,-0.158017,-2.671929,8.010999,4.682898,6.010020,-2.225693
1296000,-0.155623,-2.609680,7.982268,3.843203,7.399333,-1.920350
1300000,-0.220267,-2.667141,7.836222,3.201982,8.788646,-1.477602
1304000,-0.344765,-2.657564,7.714118,2.530226,9.597806,-0.805846
1308000,-0.519542,-2.511518,7.843405,0.759233,8.055821,-0.424167
1312000,-0.502782,-2.537854,7.546524,-0.248400,9.384066,1.316291
1316000,-0.414197,-2.583344,7.762002,-1.378171,10.468035,2.262856
1320000,-0.526724,-2.568978,7.766790,-1.332370,9.307730,2.827742
1324000,-0.299275,-2.671929,7.953538,0.591295,7.857348,3.270490
1328000,-0.239420,-2.566584,7.896077,0.560760,9.353531,3.957513
1332000,-0.244209,-2.621651,7.910442,-0.630080,8.590172,4.171253
1336000,-0.122104,-2.674323,8.226477,-1.408705,6.742845,4.125452
1340000,-0.055067,-2.693477,8.523358,-0.431606,3.964219,3.560566
1344000,0.148441,-2.719813,8.848969,0.347020,1.109257,2.522398
1348000,0.208296,-2.736573,8.877700,1.553127,-0.249522,1.331558
1352000,0.208296,-2.880225,9.107543,2.759233,-1.623568,0.415528
1356000,0.102951,-2.834735,9.026140,4.133279,-1.241889,-0.424167
1360000,-0.045490,-2.796427,9.042900,5.125646,0.055821,-0.424167
1364000,-0.232238,-2.774880,8.937555,5.950073,1.032921,0.125452
1368000,-0.244209,-2.729390,8.906430,6.560760,1.185592,1.270490
1372000,-0.174777,-2.715025,8.753201,7.125646,1.643608,1.575833
1376000,-0.007183,-2.588132,8.604761,7.385188,1.796279,2.201787
1380000,0.162806,-2.504335,8.494628,7.446257,2.956585,1.957513
1384000,0.301669,-2.446874,8.307879,7.385188,3.552005,1.514765
1388000,0.330400,-2.444480,8.128315,7.263050,3.597806,0.797207
1392000,0.260968,-2.446874,8.042124,6.392821,3.063455,0.018581
1396000,0.241814,-2.391808,7.953538,5.018775,2.071089,-0.897449
1400000,0.208296,-2.379837,7.802703,3.629463,0.193226,-1.920350
1404000,0.105345,-2.420538,7.762002,1.690531,-1.531965,-3.141724
1408000,0.007183,-2.487576,7.836222,0.011142,-2.677003,-3.996686
1412000,-0.189142,-2.473210,7.790732,-1.805652,-3.257156,-4.439434
1416000,-0.308852,-2.571373,7.812280,-3.576644,-4.234255,-4.454701
1420000,-0.517148,-2.719813,8.010999,-4.584278,-4.906011,-4.347831
1424000,-0.682347,-2.863465,8.183381,-4.660614,-6.249522,-3.706610
1428000,-0.797269,-2.834735,8.511387,-4.141530,-7.043415,-2.500503
1432000,-0.835576,-2.904167,8.576031,-3.652980,-7.425095,-0.698976
1436000,-0.782904,-2.906561,8.573636,-3.408705,-7.211354,1.239955
1440000,-0.663194,-2.918532,8.626308,-2.965957,-7.333491,3.224688
1444000,-0.459687,-2.904167,8.583213,-2.202598,-7.425095,4.781940
1448000,-0.177171,-2.770091,8.588001,-1.118629,-8.325858,5.759039
1452000,0.205901,-2.813187,8.769960,0.011142,-8.218987,5.911711
1456000,0.399832,-2.650381,8.693346,1.293585,-7.699903,5.835375
1460000,0.454898,-2.542642,8.559271,2.682898,-7.593033,5.453696
1464000,0.421380,-2.439692,8.418014,3.278317,-7.699903,5.133085
1468000,0.517148,-2.334347,8.200141,3.461524,-7.944179,4.522398
1472000,0.553061,-2.291251,8.169016,3.507325,-8.264790,4.110185
1476000,0.644040,-2.305616,8.226477,4.163814,-8.310591,3.377360
1480000,0.624887,-2.274492,8.137892,4.423356,-8.875477,2.400261
1484000,0.586579,-2.303222,8.135497,4.179081,-10.234255,1.545299
1488000,0.478840,-2.298434,8.135497,3.354653,-11.562500,1.072016
1492000,0.579397,-2.375048,8.372523,2.652363,-14.341125,0.339192
1496000,0.775721,-2.394202,8.468291,3.125646,-14.096850,0.278123
1500000,0.921768,-2.353500,8.427590,3.797401,-12.447996,-0.240961
1504000,1.053449,-2.353500,8.358158,3.415722,-10.295324,-0.973785
1508000,1.065420,-2.308010,8.281544,2.881371,-7.165553,-1.462335
1512000,0.955287,-2.303222,8.231265,2.224883,-4.844942,-1.737144
1516000,0.928950,-2.367866,8.135497,1.889004,-3.180820,-2.424167
1520000,0.897826,-2.449268,8.212111,1.492058,-2.951812,-3.050121
1524000,0.811634,-2.475605,8.396465,0.805035,-2.310591,-3.508136
1528000,0.763750,-2.561796,8.429984,0.743966,-1.058682,-3.920350
1532000,0.636858,-2.643199,8.599973,1.095111,0.849715,-4.088289
1536000,0.672771,-2.669535,8.434772,1.659997,3.277195,-4.347831
1540000,0.428562,-2.597709,8.262390,1.919539,5.475669,-4.790579
1544000,0.260968,-2.664747,8.185776,2.087478,6.590173,-4.744777
1548000,-0.129287,-2.695871,8.111555,2.560760,7.307730,-4.225693
1552000,-0.383072,-2.839523,7.922413,2.133279,5.842081,-2.912716
1556000,-0.500388,-2.798822,7.898471,1.324119,5.109257,-1.447067
1560000,-0.397437,-2.705448,7.857770,0.209615,4.101623,-0.256228
1564000,-0.299275,-2.715025,7.836222,-1.301835,3.170325,0.308658
1568000,-0.304064,-2.655170,7.884106,-2.049927,1.674142,1.163620
1572000,-0.160412,-2.655170,8.039729,-1.744583,-0.692270,1.499497
1576000,0.009577,-2.683900,8.276755,-0.950690,-3.119751,1.865910
1580000,0.114922,-2.659958,8.729259,-0.110996,-4.768606,1.667436
1584000,0.227449,-2.715025,8.693346,1.721066,-8.921278,1.255223
1588000,0.521936,-2.683900,9.074024,1.827936,-4.570133,2.461329
1592000,0.706290,-2.674323,8.872911,2.514959,-0.142652,2.965146
1596000,0.665588,-2.588132,8.793902,2.805035,4.040555,3.575833
1600000,0.758962,-2.525883,8.640674,3.095111,7.078722,3.652169
1604000,0.933739,-2.516306,8.757990,3.644730,10.880248,3.484231
1608000,0.814029,-2.370260,8.633492,3.766867,11.597806,2.659803
1612000,0.799663,-2.367866,8.451532,3.950073,9.292462,1.102551
1616000,0.691924,-2.252944,8.324639,3.827936,6.574905,-0.454701
1620000,0.555455,-2.355895,8.176199,3.873737,4.468035,-1.996686
1624000,0.306458,-2.401384,8.037335,4.301219,2.406966,-2.836380
1628000,0.196325,-2.398990,8.013393,4.377554,0.559638,-3.538671
1632000,0.167594,-2.446874,7.975086,4.255417,-0.615934,-3.966152
1636000,-0.019154,-2.504335,7.982268,3.782134,-0.936545,-3.630274
1640000,-0.057461,-2.466028,8.078036,3.263050,-1.516698,-3.355464
1644000,-0.177171,-2.545036,8.046912,2.438623,-2.035782,-2.775312
1648000,-0.229843,-2.552219,8.137892,1.186714,-2.677003,-1.905083
1652000,-0.079009,-2.580950,8.130709,0.194348,-1.822041,-0.927984
1656000,0.016759,-2.590526,8.269572,-0.202598,-0.417461,0.094917
1660000,0.028730,-2.588132,8.413225,-0.752217,0.620707,0.873543
1664000,0.177171,-2.595315,8.473080,-0.630080,1.261928,1.285757
1668000,0.208296,-2.638410,8.707711,-0.721682,1.460402,1.621635
1672000,0.227449,-2.657564,8.880095,-0.706415,1.933684,1.850642
1676000,0.205901,-2.734178,8.944737,-0.248400,2.803913,2.308658
1680000,0.153229,-2.758120,8.963891,-0.309469,3.933684,3.209421
1684000,0.158017,-2.683900,9.083601,-0.156797,3.765745,3.728505
1688000,0.292093,-2.741361,9.186552,1.568394,4.956585,4.675070
1692000,0.428562,-2.743755,9.100361,2.118012,6.223761,4.781940
1696000,0.517148,-2.607286,8.939949,2.545493,6.239028,4.110185
1700000,0.433351,-2.521094,8.743625,3.217249,5.979486,3.682703
1704000,0.313640,-2.523489,8.532935,3.858470,5.246661,3.255223
1708000,0.337582,-2.489970,8.219295,3.995875,4.162692,2.843009
1712000,0.248997,-2.415750,8.001422,3.583661,2.132157,2.537665
1716000,0.222661,-2.351106,7.896077,2.881371,0.101623,2.201787
1720000,0.320823,-2.372654,7.843405,2.545493,-1.776240,1.743772
1724000,0.260968,-2.319981,7.850587,2.408089,-2.524331,1.346826
1728000,0.390255,-2.284068,7.841011,2.056943,-3.196087,1.224688
1732000,0.339977,-2.226608,7.721301,0.927172,-2.875476,1.575833
1736000,0.351948,-2.276886,7.903260,-0.355270,-1.959446,1.346826
1740000,0.404620,-2.334347,7.934384,-1.576644,-1.257156,1.148352
1744000,0.366313,-2.379837,8.094796,-2.874354,-0.936545,0.644536
1748000,0.263362,-2.504335,8.233660,-4.080462,-1.394560,0.186520
1752000,0.193930,-2.554613,8.578424,-3.988858,-2.066316,0.033849
1756000,0.076614,-2.633622,8.827422,-3.408705,-2.967079,0.003314
1760000,0.047884,-2.762909,9.047688,-2.920156,-3.531965,0.323925
1764000,0.126893,-2.758120,9.229648,-1.927789,-3.180820,0.629268
1768000,0.263362,-2.808398,9.241618,-0.752217,-0.814408,0.827742
1772000,0.114922,-2.832341,9.014170,0.392821,1.170325,1.468963
1776000,0.124498,-2.798822,9.069236,1.095111,2.880249,2.140719
1780000,0.083797,-2.717419,8.944737,2.056943,3.903150,2.705604
1784000,0.172383,-2.734178,8.815451,3.583661,4.086356,3.178887
1788000,0.407014,-2.578555,8.590396,4.957707,3.429867,3.392627
1792000,0.639252,-2.458845,8.425196,6.026409,2.926050,2.797207
1796000,0.603339,-2.377442,8.286332,6.896638,2.300096,1.255223
1800000,0.610521,-2.322376,8.061277,7.400455,0.712310,-0.332564
1804000,0.447716,-2.267309,7.850587,7.324119,-1.455629,-1.828747
1808000,0.112527,-2.331953,7.721301,6.026409,-5.104484,-2.790579
1812000,-0.208296,-2.315193,7.668628,4.224883,-8.768606,-3.095922
1816000,-0.380678,-2.406173,7.948750,1.934806,-11.379293,-2.302029
1820000,-0.373495,-2.516306,8.111555,0.713432,-13.302958,-1.141724
1824000,-0.323217,-2.516306,8.406042,0.148546,-13.669370,0.583467
1828000,-0.191536,-2.525883,8.690952,0.133279,-12.020514,2.278123
1832000,0.043096,-2.549825,8.729259,0.820302,-8.600668,3.606368
1836000,0.241814,-2.533065,8.729259,1.003508,-4.631201,4.949879
1840000,0.373495,-2.518700,8.817844,0.789768,-1.638835,5.453696
1844000,0.442927,-2.463634,8.798691,0.285951,0.651241,5.499497
1848000,0.466869,-2.480393,8.829816,-0.355270,2.254295,5.285757
1852000,0.447716,-2.511518,8.865729,-0.828552,2.559638,4.598734
1856000,0.373495,-2.592921,8.863335,-1.118629,2.483302,4.339192
1860000,0.308852,-2.638410,8.942344,-0.965957,1.536737,3.636902
1864000,0.418985,-2.650381,8.834604,0.118012,2.162692,3.239955
1868000,0.404620,-2.667141,8.896853,1.308852,2.864982,2.659803
1872000,0.208296,-2.691083,8.590396,1.995875,2.315363,2.140719
1876000,0.155623,-2.640805,8.432379,2.621829,1.277195,1.896444
1880000,0.014365,-2.624045,8.216900,2.469157,-0.096850,1.911711
1884000,0.031125,-2.578555,8.046912,2.011142,-1.425095,1.911711
1888000,0.028730,-2.480393,8.018182,1.461524,-1.547232,2.568200
1892000,0.131681,-2.480393,7.965509,1.171447,-0.799140,2.598734
1896000,0.198719,-2.408567,7.891289,0.499691,0.177959,3.209421
1900000,0.189142,-2.410961,7.979874,0.316485,1.124524,3.636902
1904000,0.284910,-2.343924,7.955932,0.255417,1.307730,3.484231
1908000,0.284910,-2.377442,7.867347,0.331753,0.208493,3.056749
1912000,0.366313,-2.267309,8.044518,0.545493,-1.226621,1.942245
1916000,0.433351,-2.322376,8.214506,0.637096,-1.577766,1.575833
1920000,0.426168,-2.420538,8.331821,0.408088,-0.707537,1.575833
1924000,0.433351,-2.427721,8.475474,0.484424,0.864982,1.163620
1928000,0.330400,-2.501941,8.753201,0.805035,1.781012,1.331558
1932000,0.143652,-2.655170,8.815451,1.889004,1.704676,1.514765
1936000,0.098162,-2.643199,9.047688,3.110379,1.429867,1.804841
1940000,0.246603,-2.705448,9.150639,3.507325,2.376432,2.308658
1944000,0.174777,-2.789245,9.136273,4.591295,3.872615,2.781940
1948000,0.277727,-2.794033,9.277532,5.995875,5.261929,3.652169
1952000,0.217872,-2.786851,9.215282,7.507325,7.460402,4.583467
1956000,0.342371,-2.741361,8.846576,8.362287,10.361164,5.453696
1960000,0.380678,-2.609680,8.664616,9.034042,13.490935,6.125452
1964000,0.399832,-2.482787,8.367735,8.774501,15.933683,6.415528
1968000,0.385466,-2.293645,8.066066,7.919539,16.605440,5.988047
1972000,0.392649,-2.260126,7.821857,7.507325,16.132156,5.377360
1976000,0.244209,-2.267309,7.589619,6.896638,14.910783,4.827742
1980000,0.098162,-2.243367,7.436390,5.843203,12.483302,4.522398
1984000,-0.047884,-2.195483,7.290344,4.423356,9.460402,3.774307
1988000,-0.162806,-2.334347,7.290344,3.217249,6.269562,3.835375
1992000,-0.330400,-2.319981,7.311892,1.507325,1.781012,3.346826
1996000,-0.371101,-2.434903,7.445967,0.270684,-0.661736,3.697971
