time_us,ax,ay,az,gx,gy,gz
0,-0.826000,-0.842759,8.880095,1.125646,-7.318224,-1.569205
4000,-0.737414,-0.778116,9.045294,2.026409,-7.684637,-1.660808
8000,-0.790087,-0.691924,8.966286,3.217249,-7.028148,-1.248594
12000,-0.828394,-0.584185,8.908825,3.064577,-6.218987,-0.744777
16000,-0.823605,-0.553061,8.789114,2.789768,-5.180820,-0.134090
20000,-0.782904,-0.538695,8.827422,2.362287,-4.509064,0.079650
24000,-0.814029,-0.450110,8.707711,1.858470,-4.524331,0.369726
28000,-0.823605,-0.447716,8.652645,1.125646,-5.547232,0.537665
32000,-0.854730,-0.411803,8.698134,0.682898,-7.409827,0.094917
36000,-0.615310,-0.296881,8.592790,0.194348,-8.081583,-0.408900
40000,-0.524330,-0.210690,8.657434,-0.263667,-7.928911,-0.744777
44000,-0.624887,-0.172383,8.796297,-0.309469,-8.020514,-1.355464
48000,-0.622492,-0.150835,8.757990,-0.584278,-9.287690,-1.492869
52000,-0.622492,-0.079009,8.851364,-0.614812,-10.738072,-1.935617
56000,-0.565032,-0.134075,8.927979,-1.057560,-11.333492,-2.286762
60000,-0.663194,-0.076614,8.870518,-1.515576,-11.913645,-2.378365
64000,-0.438139,-0.181959,9.011775,-2.492675,-6.600667,-1.691342
68000,-0.699107,-0.234632,9.057265,-1.927789,-9.470897,-2.790579
72000,-0.814029,-0.153229,8.956709,-3.164430,-16.753340,-3.859281
76000,-0.440533,-0.313640,9.411607,-2.706415,-14.738072,-3.615006
80000,-0.572214,-0.311246,9.294291,-1.301835,-14.035782,-3.630274
84000,-0.660800,-0.337582,9.449914,-0.370538,-13.302958,-3.294396
88000,-0.746991,-0.294487,9.579201,-0.156797,-16.295324,-3.431800
92000,-0.651223,-0.332794,9.730036,0.469157,-14.631202,-2.805846
96000,-0.562637,-0.320823,9.971850,1.537859,-11.928912,-2.134090
100000,-0.421380,-0.284910,10.038888,3.079844,-3.684637,-0.592106
104000,-0.775721,-0.105345,9.854534,3.354653,-4.402194,-1.034854
108000,-0.921768,0.067038,9.593566,4.285951,-8.829675,-1.615006
112000,-0.641646,0.105345,9.730036,3.568394,-7.852575,-0.760045
116000,-0.667982,0.251391,9.950302,2.774501,-8.188454,-1.126457
120000,-0.665588,0.280122,10.002975,2.530226,-9.486164,-1.340197
124000,-0.500388,0.445322,9.974244,3.324119,-8.280057,-1.324930
128000,-0.414197,0.490811,9.792285,4.102745,-8.020514,-1.828747
132000,-0.347159,0.636858,9.742006,4.774501,-6.951812,-2.210426
136000,-0.404620,0.749385,9.586384,4.514959,-7.501431,-2.622640
140000,-0.272939,0.852336,9.533711,4.041677,-7.012881,-2.698976
144000,-0.160412,1.070208,9.378088,3.873737,-5.776239,-3.782945
148000,-0.177171,1.070208,9.186552,3.522592,-6.707537,-4.683709
152000,-0.169988,1.295263,9.102755,2.438623,-7.348759,-5.172258
156000,-0.100556,1.240196,9.085996,2.423356,-4.692270,-5.615006
160000,-0.165200,1.436521,9.066842,-1.240766,-5.654102,-6.714243
164000,-0.114922,1.395820,9.014170,-1.530843,-4.799140,-6.927983
168000,-0.107739,1.335965,9.002198,-2.614812,-3.623568,-7.508136
172000,-0.153229,1.218649,9.030929,-2.752217,-0.509064,-7.340197
176000,-0.344765,1.283292,8.851364,-3.927789,-3.623568,-8.729510
180000,-0.306458,1.158794,8.746018,-4.385805,-3.715171,-8.668442
184000,-0.316035,1.113304,8.813056,-5.744583,-4.371659,-9.248594
188000,-0.354342,0.993594,8.904037,-6.110995,-5.883110,-10.103557
192000,-0.414197,0.988805,8.992621,-6.752217,-8.753339,-11.538671
196000,-0.390255,0.967257,9.258378,-6.981225,-10.906011,-12.576838
200000,-0.383072,0.957681,9.239224,-6.813286,-12.447996,-13.691342
204000,-0.459687,0.967257,9.287108,-7.011759,-13.135018,-14.164625
208000,-0.435745,0.876278,9.313444,-7.286569,-13.089217,-14.744778
212000,-0.620098,0.952892,9.188946,-7.439240,-12.234255,-15.095922
216000,-0.763750,0.916979,8.999804,-7.607179,-12.051049,-14.912717
220000,-0.847547,1.005565,8.887277,-8.782751,-12.509065,-14.454701
224000,-0.756568,1.060631,8.805874,-10.462141,-13.547233,-14.653174
228000,-0.627281,1.082179,8.779537,-11.897255,-14.539598,-14.546305
232000,-0.517148,1.144428,8.798691,-13.011760,-15.104485,-15.095922
236000,-0.320823,1.177947,8.769960,-14.034659,-15.073950,-15.324930
240000,-0.217872,1.230620,8.808268,-15.103362,-15.180820,-16.439434
244000,-0.114922,1.175553,8.702923,-15.332370,-14.432729,-17.508135
248000,-0.069432,1.113304,8.741230,-15.637713,-14.005248,-17.920349
252000,-0.081403,1.127669,8.698134,-16.126263,-14.249522,-19.477602
256000,-0.023942,1.139640,8.583213,-16.798018,-14.509065,-20.256227
260000,0.038307,1.074997,8.358158,-17.561377,-15.012881,-21.844013
264000,-0.035913,1.103727,8.068460,-18.416338,-16.325857,-22.927982
268000,0.107739,1.034295,8.176199,-19.637712,-17.394560,-24.195158
272000,0.117316,0.993594,8.068460,-20.981224,-17.791508,-26.027220
276000,0.119710,0.916979,8.085219,-22.202599,-17.959446,-27.340197
280000,0.028730,0.907402,7.766790,-23.698780,-18.631203,-28.698975
284000,-0.270545,0.885855,7.445967,-26.721682,-25.150286,-30.683708
288000,-0.019154,0.773327,7.702147,-27.714048,-23.196087,-31.019587
292000,-0.253785,0.579397,7.788338,-30.034660,-25.287691,-32.332565
296000,-0.505177,0.368707,7.836222,-32.492676,-29.394560,-33.126457
300000,-0.916979,0.074220,8.221688,-34.462139,-35.730438,-33.798210
304000,-1.091756,-0.205901,8.585608,-34.798019,-39.883110,-32.882183
308000,-1.247379,-0.292093,8.860941,-35.469772,-42.218987,-30.851646
312000,-1.039083,-0.553061,8.856153,-35.881989,-44.539600,-28.851646
316000,-0.672771,-0.648829,9.366117,-36.859085,-38.982346,-26.164623
320000,-0.991199,-0.821211,9.363723,-36.584278,-40.661736,-24.225693
324000,-0.713472,-0.974440,9.361329,-34.004124,-38.249523,-21.340197
328000,-0.466869,-1.197101,9.421184,-32.523209,-34.066315,-19.447067
332000,-0.603339,-1.323994,9.105149,-33.011757,-33.394562,-18.073021
336000,-0.687136,-1.352724,8.906430,-34.202599,-32.066315,-16.347830
340000,-0.723049,-1.369483,8.815451,-35.072826,-33.119751,-14.912717
344000,-0.713472,-1.443704,8.832211,-35.362904,-34.051048,-13.599740
348000,-0.761356,-1.477222,9.078813,-34.385803,-36.768608,-12.210426
352000,-0.687136,-1.534683,9.198523,-33.072826,-40.035782,-11.172258
356000,-0.517148,-1.515530,9.385271,-31.668247,-41.043415,-9.172258
360000,-0.466869,-1.414973,9.473856,-30.584278,-40.280056,-7.615006
364000,-0.292093,-1.357512,9.399636,-29.393436,-37.883110,-5.660808
368000,0.045490,-1.400608,9.442732,-28.110996,-28.646469,-1.966151
372000,-0.189142,-1.199495,9.349358,-28.355270,-29.486164,-1.202793
376000,0.095768,-1.192312,8.983045,-28.187332,-29.287691,0.491864
380000,0.450110,-1.182736,8.990228,-28.691147,-21.989981,3.239955
384000,0.708684,-1.067814,8.710106,-29.423973,-15.394561,5.774307
388000,0.895431,-1.034295,8.389283,-30.889622,-8.478530,8.018581
392000,1.173159,-0.998382,8.204929,-32.874355,-2.371660,9.041482
396000,1.410185,-1.029507,7.922413,-34.431606,6.483303,10.476596
400000,1.616086,-1.043872,7.807492,-35.881989,12.635974,10.629268
404000,1.695095,-1.142034,7.649475,-36.767483,17.338264,10.873543
408000,1.690306,-1.254562,7.335834,-37.607178,21.887882,10.247588
412000,1.465251,-1.268927,7.144298,-38.675880,24.559637,10.247588
416000,1.345541,-1.546654,6.852205,-39.958324,25.903149,10.201787
420000,1.180341,-1.628057,6.919243,-40.920155,24.697042,10.094917
424000,1.213860,-1.862689,7.287950,-41.194965,20.239027,9.545299
428000,1.546654,-2.070984,7.762002,-36.614811,24.666508,9.896443
432000,1.333570,-2.195483,7.908048,-33.622444,22.635973,8.598734
436000,1.582567,-2.339135,7.817069,-29.057560,21.124523,7.484231
440000,1.678335,-2.602497,7.860164,-25.530842,18.101622,5.377360
444000,1.879448,-2.784456,7.910442,-21.897255,15.200859,3.331558
448000,2.080561,-2.868254,7.785944,-18.446873,14.239027,0.873543
452000,2.154782,-3.138798,7.723695,-15.088096,15.124523,-1.080655
456000,2.138022,-3.335123,7.311892,-12.385804,12.895515,-3.523403
460000,2.375048,-3.526659,6.974309,-12.340003,11.719943,-6.088289
464000,2.346318,-3.713407,6.591237,-14.767484,11.368798,-8.347831
468000,2.363077,-3.821146,5.827487,-17.790384,10.635974,-10.134090
472000,2.580950,-3.912126,5.813122,-23.149162,18.605440,-11.156992
476000,2.535460,-4.043807,5.631162,-28.904888,25.384066,-11.645541
480000,2.281674,-3.962404,5.384560,-33.530842,22.269562,-14.332564
484000,2.877831,-4.034230,5.279215,-37.683514,26.468035,-14.943251
488000,3.083732,-4.173094,5.363012,-42.156796,35.719944,-16.225693
492000,3.007117,-4.285621,5.183447,-46.996490,40.880249,-18.515770
496000,3.081338,-4.419696,5.099649,-52.187332,42.208492,-21.752411
500000,3.265691,-4.673482,5.066131,-55.820919,45.857349,-25.385998
504000,3.742137,-5.035006,5.604826,-57.256031,63.368797,-27.004318
508000,3.169923,-5.025429,5.358223,-57.683514,67.170326,-32.408901
512000,2.873042,-5.214571,5.173870,-58.645348,59.887882,-38.973785
516000,3.062184,-5.367800,5.353435,-58.462139,56.254295,-46.531036
520000,2.829947,-5.640739,5.643134,-57.988857,54.849712,-53.782944
524000,2.322376,-5.968745,5.662287,-56.202599,49.811546,-62.210426
528000,1.666364,-6.155493,5.983110,-53.393436,38.254295,-71.004318
532000,1.015141,-6.251261,6.524199,-49.408703,24.788645,-79.905083
536000,0.847547,-6.792350,6.830657,-40.843819,14.498569,-86.744774
540000,0.337582,-6.880936,7.089231,-35.698780,2.498570,-94.515770
544000,-0.287304,-7.302315,7.829040,-23.790384,-4.295324,-99.065384
548000,-1.177947,-7.235278,8.214506,-13.546111,-8.264790,-101.538673
552000,-2.348712,-7.481880,9.083601,-23.759850,-22.020515,-103.172256
556000,-2.765303,-7.833828,9.756371,-23.652979,-23.150286,-101.828743
560000,-3.404555,-7.999028,10.000581,-22.294201,-21.791508,-98.454704
564000,-4.067749,-8.231265,10.201694,-20.355270,-20.509064,-94.790581
568000,-4.738125,-8.190564,10.151415,-19.347635,-20.615934,-89.187523
572000,-5.564125,-8.169016,10.187328,-20.340002,-21.547232,-82.317299
576000,-6.203377,-7.960721,10.168175,-22.187330,-27.165552,-74.347832
580000,-6.291962,-8.027759,10.620679,-21.576643,-35.165554,-66.225693
584000,-6.373365,-8.228871,10.963050,-17.881987,-40.112118,-58.027218
588000,-6.452374,-8.087613,11.020511,-12.630080,-41.226624,-46.927982
592000,-6.567295,-7.728483,11.367670,-8.981225,-43.669369,-34.836380
596000,-6.392519,-7.601591,11.441890,-8.752217,-52.005249,-23.981419
600000,-5.549759,-7.400477,11.537658,-6.233133,-56.631203,-12.454701
604000,-4.448427,-7.184999,11.726800,-0.752217,-56.570133,-1.599739
608000,-3.301604,-6.873753,11.631032,7.583661,-54.615936,8.568199
612000,-2.147599,-5.729325,10.984597,13.766867,-53.211353,16.827742
616000,-0.768539,-5.456386,10.493786,14.881371,-55.119751,22.262857
620000,0.869095,-4.766856,9.165004,24.957708,-52.692272,25.972780
624000,1.982399,-3.993528,8.221688,24.347021,-59.501431,24.736139
628000,3.505111,-3.552995,7.687782,24.270685,-59.593033,21.621635
632000,4.106056,-3.098097,7.050924,22.423357,-68.493790,13.026215
636000,5.018247,-2.853889,6.780379,26.560760,-56.402195,8.751406
640000,4.738125,-2.535460,6.189012,28.087479,-55.638836,0.568200
644000,4.659117,-2.382231,5.786786,27.583662,-59.165554,-6.393632
648000,4.584896,-2.391808,5.324705,22.377556,-62.829674,-14.027221
652000,4.331111,-2.456451,5.499481,19.522593,-51.241890,-16.882181
656000,3.770868,-2.516306,5.238513,21.873737,-44.295322,-19.935617
660000,3.045424,-2.607286,5.090073,20.163815,-41.913643,-21.798212
664000,2.928109,-2.784456,5.312734,20.927174,-27.730438,-20.378365
668000,2.128445,-2.806004,5.094861,19.598928,-22.371660,-20.088287
672000,1.776498,-2.703054,4.776433,18.453890,-18.173187,-17.615005
676000,1.685518,-2.782062,5.161899,15.492058,-8.997614,-14.546305
680000,1.671153,-2.844312,5.674258,13.293585,-1.043415,-12.210426
684000,1.826776,-2.961627,6.126762,13.247783,10.208493,-9.187526
688000,1.972822,-3.110068,7.316680,14.163814,24.697042,-5.859281
692000,1.410185,-3.110068,7.474698,16.545494,33.994751,-3.233327
696000,1.163582,-3.019088,7.424419,15.339386,36.040554,-0.882182
700000,1.273715,-2.980781,7.551312,15.873737,41.857349,1.865910
704000,1.235408,-2.901772,7.548918,16.224882,46.055820,3.652169
708000,1.053449,-2.691083,7.556100,15.721066,46.956585,4.812475
712000,0.840365,-2.652776,7.513005,15.721066,43.933685,5.804841
716000,0.794875,-2.523489,7.350199,14.896638,36.055820,5.102551
720000,1.094150,-2.389413,7.424419,16.530226,36.498569,6.232322
724000,1.230620,-2.303222,7.565677,15.568394,39.368797,7.499498
728000,0.823605,-2.085350,7.067683,14.347019,29.322996,5.484231
732000,0.742203,-2.003947,6.658275,13.736333,21.796280,5.530032
736000,0.993594,-1.896208,6.572083,10.972974,16.910784,5.835375
740000,0.885855,-1.915361,6.572083,7.934806,10.788646,5.316291
744000,1.161188,-1.869871,6.636727,4.957707,6.574905,5.423162
748000,1.185130,-1.824382,6.588843,2.026409,1.338264,5.667437
752000,1.431733,-1.795651,6.885724,-2.126262,-1.455629,5.636902
756000,1.850718,-1.965640,7.637504,-5.668247,-2.356392,5.148353
760000,1.975216,-2.149993,8.238448,-8.263667,-2.707537,5.010948
764000,2.219425,-2.456451,9.208099,-7.256034,6.559639,6.446063
768000,1.944092,-2.504335,9.818622,-3.256034,9.338264,6.247589
772000,1.587356,-2.511518,9.607931,-0.019392,1.185592,4.323925
776000,1.845930,-2.542642,9.753978,3.950073,2.590173,4.186521
780000,1.862689,-2.626439,9.603143,6.301218,5.689409,3.713238
784000,1.745373,-2.669535,9.246407,6.957707,8.941318,2.293390
788000,1.489193,-2.604892,9.121908,7.598928,8.987119,0.140719
792000,1.352724,-2.698265,8.832211,8.774501,8.956584,-1.340197
796000,1.221043,-2.758120,8.798691,9.858470,8.376431,-3.447068
800000,0.964863,-2.726996,8.980651,10.392821,5.261929,-5.676075
804000,0.785298,-2.691083,9.124303,10.606562,0.987119,-8.179892
808000,0.553061,-2.726996,9.414001,10.606562,-4.692270,-9.935617
812000,0.462081,-2.808398,9.665392,10.423356,-7.913644,-10.683709
816000,0.598550,-2.839523,9.682152,10.194348,-7.196087,-10.790579
820000,0.591368,-2.901772,9.962274,10.347020,-3.364026,-10.546305
824000,0.517148,-2.791639,9.727641,9.766868,-4.585400,-11.141725
828000,0.593762,-2.846706,9.725247,8.972974,-6.096850,-11.828747
832000,0.763750,-2.832341,9.852140,8.743966,-6.325858,-11.935617
836000,0.876278,-2.798822,9.792285,9.049310,-6.249522,-12.393633
840000,0.742203,-2.688689,9.414001,8.805036,-7.883110,-13.156992
844000,0.806846,-2.655170,9.047688,8.408089,-10.722805,-13.950885
848000,0.658405,-2.715025,9.074024,6.637096,-11.562500,-14.286762
852000,0.620098,-2.743755,8.793902,5.247783,-10.447996,-13.706610
856000,0.577003,-2.798822,8.635885,5.217249,-5.715171,-11.966152
860000,0.481235,-2.652776,8.269572,3.522592,-3.547232,-10.317297
864000,0.332794,-2.540248,7.967903,-0.920156,-6.646469,-9.782946
868000,0.514753,-2.583344,7.922413,-3.607178,-5.745705,-9.248594
872000,0.577003,-2.602497,8.180987,-5.332370,-4.173186,-8.164625
876000,0.593762,-2.748544,8.537724,-5.423973,-1.944179,-7.050121
880000,0.744597,-2.841918,8.925584,-5.530843,2.086356,-5.905083
884000,0.603339,-2.827552,9.054871,-5.103362,6.697043,-4.882182
888000,0.280122,-2.894590,8.863335,-4.263667,8.162691,-4.485235
892000,-0.201113,-2.832341,8.674192,-3.057560,5.017653,-3.905083
896000,-0.181959,-2.920926,8.765172,-1.500308,-0.692270,-3.233327
900000,-0.131681,-2.959233,8.762778,0.179081,-3.287690,-2.302029
904000,-0.052672,-2.971204,8.774749,3.568394,-6.325858,-1.706609
908000,0.146046,-2.916138,8.611943,4.728699,-7.791507,-0.515770
912000,0.383072,-2.808398,8.324639,5.553127,-9.318225,-0.408900
916000,0.572214,-2.691083,8.293514,5.583661,-9.654102,-0.164625
920000,0.758962,-2.652776,8.259995,5.659997,-10.554866,-0.683709
924000,1.005565,-2.650381,8.564059,5.934806,-9.287690,-0.821113
928000,1.130063,-2.667141,8.702923,5.873737,-6.967079,-1.050121
932000,1.223437,-2.602497,8.913613,6.056943,-6.066316,-1.844014
936000,1.209072,-2.530671,8.894460,4.942440,-5.455629,-2.118823
940000,1.302446,-2.549825,9.021352,5.293585,0.819180,-1.538671
944000,1.185130,-2.571373,9.081207,4.255417,6.086356,-0.912716
948000,1.046266,-2.535460,8.865729,3.797401,8.987119,-0.668442
952000,0.873884,-2.533065,8.571242,2.560760,10.849714,-0.439434
956000,0.684742,-2.545036,8.322245,1.690531,13.200859,0.384994
960000,0.574608,-2.631228,8.269572,0.484424,13.597806,0.598734
964000,0.435745,-2.595315,8.157045,-0.233133,13.506203,0.766673
968000,0.440533,-2.612074,7.903260,-0.752217,11.521470,0.766673
972000,0.466869,-2.636016,7.682993,-1.607178,10.254294,0.598734
976000,0.574608,-2.674323,7.615956,-2.095728,10.300096,0.323925
980000,0.397437,-2.698265,7.513005,-2.126262,8.208493,-0.088289
984000,0.342371,-2.767697,7.603985,-1.820919,5.322997,-0.469968
988000,0.481235,-2.786851,7.714118,0.011142,7.490936,-0.073022
992000,0.184354,-2.734178,7.773973,0.377554,3.414600,-1.431800
996000,0.174777,-2.688689,7.548918,0.713432,0.727577,-1.874548
1000000,0.131681,-2.655170,7.671022,-0.324736,-2.432728,-2.668442
1004000,0.014365,-2.688689,7.668628,-1.133896,-2.707537,-2.088289
1008000,-0.117316,-2.729390,8.109161,-1.851454,-3.318224,-1.309663
1012000,-0.117316,-2.700660,8.370130,-1.820919,-6.356392,-0.454701
1016000,0.160412,-2.801216,8.671799,-0.782751,-8.371659,0.003314
1020000,0.407014,-2.743755,9.030929,0.667630,-7.348759,1.056749
1024000,0.675165,-2.760514,9.251195,2.438623,-3.822041,2.003314
1028000,0.691924,-2.688689,9.133880,3.980608,-4.738071,2.232322
1032000,0.890643,-2.710236,9.272743,5.721066,-3.287690,2.308658
1036000,1.003170,-2.499547,9.018958,7.919539,-0.783873,2.171253
1040000,1.134852,-2.494758,8.655039,9.064577,2.284829,1.926978
1044000,1.271321,-2.336741,8.432379,8.881371,4.315363,0.781940
1048000,1.015141,-2.252944,8.054094,8.102745,5.078722,-0.897449
1052000,0.866701,-2.308010,7.754819,6.560760,4.422234,-2.210426
1056000,0.627281,-2.245761,7.841011,4.087478,3.643608,-2.943251
1060000,0.263362,-2.370260,7.852982,1.934806,1.552005,-3.828747
1064000,0.071826,-2.521094,8.054094,0.438623,-0.386927,-3.935617
1068000,-0.169988,-2.580950,8.090008,0.087478,-0.951812,-3.401266
1072000,-0.392649,-2.614468,7.982268,-0.477408,-6.585400,-2.989052
1076000,-0.339977,-2.664747,8.121132,-2.492675,-7.409827,-1.905083
1080000,-0.258574,-2.746149,8.274361,-3.088094,-7.409827,-0.760045
1084000,-0.191536,-2.772485,8.441956,-2.049927,-6.218987,1.194154
1088000,-0.067038,-2.712631,8.513782,-2.706415,-7.196087,1.988047
1092000,0.268151,-2.719813,8.525752,-2.401072,-5.745705,4.018581
1096000,0.486023,-2.719813,8.887277,-1.744583,-4.096850,5.010948
1100000,0.632069,-2.707842,9.114726,-0.782751,-0.860209,6.232322
1104000,1.027112,-2.719813,9.026140,0.728699,2.300096,6.827742
1108000,1.326388,-2.626439,9.026140,1.553127,8.269562,7.056749
1112000,1.221043,-2.442086,8.784326,2.270684,9.353531,6.232322
1116000,1.391031,-2.339135,8.494628,2.835569,10.010019,5.560566
1120000,1.563414,-2.245761,8.190564,2.866104,11.475668,4.125452
1124000,1.553837,-2.173935,8.145074,1.598928,13.032920,3.056749
1128000,1.460463,-2.066196,7.929596,0.988241,12.681775,1.484230
1132000,1.321599,-2.111686,7.778761,0.270684,11.933683,0.369726
1136000,1.187524,-2.133234,7.682993,-0.278934,9.552004,-0.973785
1140000,1.134852,-2.224213,7.929596,-0.935423,7.093989,-2.240961
1144000,1.079785,-2.327164,8.348581,-0.477408,5.292463,-3.630274
1148000,1.051055,-2.506729,8.619126,1.522592,5.765745,-3.813480
1152000,0.804452,-2.473210,8.722076,2.896638,7.872615,-3.294396
1156000,0.634463,-2.475605,8.602366,2.896638,9.093989,-2.790579
1160000,0.672771,-2.509123,8.729259,2.652363,10.635974,-2.073022
1164000,0.569820,-2.537854,8.645462,2.469157,11.857347,-1.905083
1168000,0.567426,-2.588132,8.659827,2.469157,12.422234,-1.844014
1172000,0.418985,-2.604892,8.719683,1.629462,9.582539,-2.592106
1176000,0.349553,-2.667141,8.846576,1.904272,11.750478,-1.599739
1180000,0.208296,-2.691083,8.793902,2.194348,10.635974,-1.431800
1184000,0.174777,-2.760514,8.678981,2.576027,9.643607,-0.973785
1188000,0.160412,-2.741361,8.487445,3.140913,9.658875,-0.088289
1192000,0.186748,-2.683900,8.370130,3.507325,8.437500,0.888810
1196000,0.189142,-2.568978,8.006210,2.026409,5.643608,1.224688
1200000,0.395043,-2.645593,8.250419,1.766867,6.315363,1.606368
1204000,0.457293,-2.571373,8.178593,2.209615,5.200860,1.270490
1208000,0.517148,-2.533065,8.037335,2.820302,7.231394,2.079650
1212000,0.469264,-2.375048,7.917625,2.255417,6.254295,2.064383
1216000,0.550666,-2.394202,7.848193,1.598928,5.628341,1.881177
1220000,0.512359,-2.473210,7.967903,1.293585,5.231394,1.835375
1224000,0.483629,-2.482787,8.262390,1.064577,4.620707,2.323925
1228000,0.430956,-2.504335,8.410830,0.789768,2.788646,2.125452
1232000,0.562637,-2.516306,8.482656,0.743966,0.315363,2.384994
1236000,0.782904,-2.394202,8.662222,0.591295,-1.119751,1.957513
1240000,1.103727,-2.413355,8.717288,1.385188,0.345898,2.232322
1244000,1.223437,-2.305616,8.755595,2.056943,0.926050,1.148352
1248000,1.395820,-2.248155,8.638280,2.377554,1.032921,-0.760045
1252000,1.362301,-2.262521,8.631097,2.530226,-0.112117,-2.256228
1256000,1.175553,-2.250550,8.599973,2.789768,-1.593034,-3.889816
1260000,1.041478,-2.367866,8.556877,2.438623,-2.631201,-5.187525
1264000,0.835576,-2.408567,8.571242,2.102745,-3.211354,-5.966151
1268000,0.694318,-2.509123,8.667010,1.782134,-3.028148,-6.607373
1272000,0.617704,-2.607286,8.762778,2.438623,-2.906011,-6.592105
1276000,0.383072,-2.674323,8.738836,3.705798,-2.493797,-6.256227
1280000,0.248997,-2.695871,8.645462,4.316485,-1.501431,-5.828747
1284000,-0.023942,-2.659958,8.377312,4.331753,-1.760972,-4.989052
1288000,-0.052672,-2.671929,8.231265,4.087478,-2.066316,-3.431800
1292000,-0.079009,-2.645593,7.999028,3.797401,-2.066316,-2.363098
1296000,-0.031125,-2.561796,7.793127,3.308852,-2.722805,-1.676075
1300000,-0.143652,-2.511518,7.685388,2.759233,-4.051049,-0.760045
1304000,0.047884,-2.492364,7.678205,2.484425,-5.898377,0.430795
1308000,0.215478,-2.458845,7.728483,2.224883,-7.043415,1.087284
1312000,0.330400,-2.408567,7.766790,1.217249,-8.356393,1.499497
1316000,0.471658,-2.298434,7.783550,-0.324736,-8.967080,1.850642
1320000,0.639252,-2.358289,7.967903,-1.439240,-9.440362,2.232322
1324000,0.821211,-2.324770,8.020576,-2.309469,-9.577766,2.598734
1328000,1.029507,-2.305616,8.219295,-3.210232,-10.432729,2.491864
1332000,1.292869,-2.238579,8.463503,-3.927789,-9.226622,1.865910
1336000,1.580173,-2.365471,8.695741,-3.714049,-3.684637,2.094917
1340000,1.462857,-2.288857,8.671799,-4.477407,-3.348759,0.217055
1344000,1.407791,-2.365471,8.580819,-3.988858,-0.188453,0.110184
1348000,1.343147,-2.327164,8.592790,-3.958324,3.231394,-0.134090
1352000,1.297657,-2.288857,8.300697,-3.164430,5.277195,-0.210426
1356000,1.185130,-2.413355,8.204929,-3.225499,4.803913,-1.004319
1360000,0.976834,-2.398990,7.963115,-3.347636,4.788646,-1.874548
1364000,0.955287,-2.331953,7.965509,-3.332370,3.429867,-2.943251
1368000,0.775721,-2.406173,7.955932,-3.546110,1.292463,-4.134090
1372000,0.603339,-2.418144,7.970297,-3.454507,-1.974713,-5.080655
1376000,0.411803,-2.513912,8.173804,-2.141530,-5.425095,-5.905083
1380000,0.361524,-2.628834,8.305486,-1.027026,-8.982347,-6.271495
1384000,0.287304,-2.705448,8.619126,0.408088,-11.883110,-6.286762
1388000,0.093374,-2.774880,8.863335,1.278317,-13.073950,-5.538671
1392000,0.126893,-2.817975,8.968679,1.446256,-13.302958,-4.210426
1396000,0.205901,-2.815581,9.071630,1.568394,-9.806774,-2.622640
1400000,0.198719,-2.815581,9.380483,2.102745,-6.280056,-0.500503
1404000,0.500388,-2.758120,9.308656,3.263050,-3.760972,0.995681
1408000,0.847547,-2.647987,9.454702,3.751600,0.483302,2.033848
1412000,1.063026,-2.659958,9.411607,3.827936,4.177959,2.400261
1416000,1.137246,-2.612074,9.229648,4.484425,5.872615,1.957513
1420000,1.115698,-2.573767,9.011775,5.034043,5.200860,1.331558
1424000,1.019930,-2.535460,8.753201,4.866104,4.910783,0.568200
1428000,1.003170,-2.482787,8.568848,4.652363,4.803913,0.262856
1432000,0.902614,-2.482787,8.429984,4.133279,4.819180,-0.363098
1436000,0.816423,-2.420538,8.209718,3.324119,5.567272,-0.500503
1440000,0.684742,-2.394202,8.087613,2.285951,5.887883,-0.332564
1444000,0.550666,-2.410961,7.812280,1.644730,5.139791,-0.408900
1448000,0.603339,-2.317587,7.651869,0.209615,6.223761,0.171253
1452000,0.622492,-2.308010,7.568071,-1.271301,7.292463,0.278123
1456000,0.471658,-2.379837,7.467515,-2.278934,7.811547,0.568200
1460000,0.397437,-2.300828,7.580042,-3.622446,7.811547,0.812474
1464000,0.474052,-2.348712,7.486669,-5.149163,6.697043,0.934612
1468000,0.572214,-2.377442,7.766790,-6.798018,4.895516,0.568200
1472000,0.565032,-2.391808,7.833828,-7.042294,3.017654,-0.149358
1476000,0.452504,-2.425326,7.989451,-6.523210,-0.799140,-1.172258
1480000,0.519542,-2.466028,8.216900,-6.202599,-5.241889,-1.920350
1484000,0.505177,-2.437297,8.384495,-6.278934,-10.051049,-2.515770
1488000,0.742203,-2.583344,8.827422,-4.492675,-6.295323,-2.103556
1492000,0.469264,-2.492364,8.815451,-4.385805,-6.615934,-1.782945
1496000,0.526724,-2.518700,8.791509,-3.759850,-5.776239,-0.927984
1500000,0.708684,-2.439692,8.851364,-3.607178,-3.776240,-0.531037
1504000,0.785298,-2.516306,8.954314,-3.546110,-1.470896,0.003314
1508000,0.861913,-2.580950,8.990228,-3.561377,-0.066316,-0.042487
1512000,0.782904,-2.631228,9.251195,-3.194965,0.193226,0.003314
1516000,0.773327,-2.638410,9.349358,-1.729316,1.307730,0.339192
1520000,0.737414,-2.643199,9.224859,-0.691148,2.345898,0.751406
1524000,0.828394,-2.626439,9.126697,0.514959,3.322997,0.629268
1528000,0.842759,-2.600103,8.911219,2.179081,3.521470,0.461329
1532000,0.799663,-2.621651,8.877700,3.293585,2.742844,0.201787
1536000,0.773327,-2.626439,8.614338,4.072211,1.582539,-0.179892
1540000,0.821211,-2.624045,8.595184,4.667631,0.971852,-0.531037
1544000,0.816423,-2.580950,8.485051,5.079844,1.368798,-0.546304
1548000,0.770933,-2.588132,8.324639,5.721066,1.781012,-0.760045
1552000,0.699107,-2.614468,8.121132,5.950073,1.414600,-1.019587
1556000,0.620098,-2.557007,8.034941,5.721066,0.788646,-1.263861
1560000,0.711078,-2.523489,7.862558,5.201982,1.887883,-1.324930
1564000,0.548272,-2.454057,7.613562,4.530226,2.010020,-1.538671
1568000,0.397437,-2.367866,7.426814,3.217249,-0.112117,-1.859281
1572000,0.330400,-2.348712,7.347805,1.766867,-2.799140,-2.042487
1576000,0.325611,-2.296039,7.376535,0.118012,-4.066316,-1.660808
1580000,0.438139,-2.358289,7.558495,-1.408705,-3.928911,-1.233327
1584000,0.454898,-2.346318,7.824251,-1.378171,-3.394560,-0.622640
1588000,0.526724,-2.248155,7.805098,-1.775118,-3.730438,0.003314
1592000,0.682347,-2.219425,7.838616,-3.240766,-3.562499,0.033849
1596000,0.715866,-2.274492,8.066066,-5.393438,-3.089217,0.339192
1600000,0.811634,-2.355895,8.224083,-6.767485,-3.898377,0.125452
1604000,0.873884,-2.351106,8.497022,-7.408706,-5.211354,-0.164625
1608000,1.082179,-2.492364,8.920795,-7.469774,-5.959445,-0.454701
1612000,1.165976,-2.638410,9.344569,-6.294202,-5.226621,-1.553938
1616000,1.316811,-2.607286,9.603143,-4.370538,-2.509064,-1.996686
1620000,1.113304,-2.722207,9.696517,-2.401072,0.483302,-2.179892
1624000,0.964863,-2.683900,9.495404,-1.362904,2.437501,-2.225693
1628000,0.859518,-2.729390,9.227253,0.041676,4.361165,-2.332564
1632000,0.605733,-2.762909,9.143456,1.293585,5.048188,-2.347831
1636000,0.445322,-2.717419,9.035717,2.728699,4.040555,-2.302029
1640000,0.371101,-2.674323,8.872911,3.812669,3.429867,-1.935617
1644000,0.337582,-2.624045,8.746018,4.789768,2.254295,-2.042487
1648000,0.222661,-2.554613,8.614338,5.492058,1.353531,-2.057755
1652000,0.169988,-2.475605,8.432379,6.056943,-0.967079,-1.889816
1656000,0.184354,-2.506729,8.372523,6.148546,-2.722805,-1.706609
1660000,0.260968,-2.487576,8.439561,5.965341,-4.600667,-1.309663
1664000,0.339977,-2.473210,8.449138,5.217249,-5.562499,-1.248594
1668000,0.459687,-2.501941,8.319851,4.591295,-5.440361,-0.866915
1672000,0.560243,-2.432509,8.406042,3.827936,-4.890743,-0.256228
1676000,0.617704,-2.403779,8.317456,2.347020,-3.318224,-0.149358
1680000,0.761356,-2.394202,8.389283,0.637096,-0.921278,0.400261
1684000,0.794875,-2.406173,8.315063,-0.584278,0.590173,0.049116
1688000,0.758962,-2.446874,8.291121,-1.332370,1.063455,-0.592106
1692000,0.679953,-2.394202,8.362947,-1.988858,1.093989,-0.866915
1696000,0.519542,-2.477999,8.406042,-1.881988,0.910783,-1.050121
1700000,0.459687,-2.504335,8.489840,-1.225499,0.788646,-0.882182
1704000,0.397437,-2.552219,8.463503,-0.965957,0.926050,-0.469968
1708000,0.428562,-2.535460,8.542512,-1.118629,1.521470,-0.011953
1712000,0.387861,-2.609680,8.662222,-0.889621,2.513837,0.354459
1716000,0.521936,-2.540248,8.611943,-0.477408,3.200860,0.888810
1720000,0.488417,-2.549825,8.626308,-0.523209,2.681776,0.766673
1724000,0.648829,-2.636016,8.607155,0.118012,2.254295,1.056749
1728000,0.691924,-2.655170,8.566454,0.652363,2.574905,0.659803
1732000,0.720655,-2.580950,8.506598,0.667630,2.727577,0.033849
1736000,0.675165,-2.540248,8.398860,0.469157,1.964218,-0.637907
1740000,0.656011,-2.571373,8.480263,0.377554,0.926050,-1.385999
1744000,0.481235,-2.693477,8.607155,0.118012,-0.203721,-1.462335
1748000,0.423774,-2.683900,8.810662,0.026409,-0.692270,-1.447067
1752000,0.414197,-2.736573,8.951921,0.698165,-1.516698,-1.309663
1756000,0.488417,-2.753332,9.124303,2.530226,-1.287690,-1.019587
1760000,0.481235,-2.698265,9.186552,4.163814,0.116890,-0.378365
1764000,0.402226,-2.779668,8.767567,5.003509,2.559638,0.323925
1768000,0.251391,-2.652776,8.638280,5.140913,3.765745,1.117818
1772000,0.294487,-2.626439,8.475474,4.514959,3.658875,1.560566
1776000,0.308852,-2.559402,8.355764,4.133279,3.719944,2.018581
1780000,0.270545,-2.456451,8.058883,3.705798,3.200860,2.323925
1784000,0.392649,-2.406173,8.051701,3.034043,2.269562,2.476597
1788000,0.519542,-2.336741,7.891289,2.056943,1.338264,2.125452
1792000,0.577003,-2.296039,7.819463,1.568394,0.162692,1.713238
1796000,0.524330,-2.312799,7.874529,1.553127,-0.997614,1.346826
1800000,0.486023,-2.339135,7.917625,1.095111,-0.951812,1.606368
1804000,0.399832,-2.384625,8.078036,0.972974,-2.478530,1.820108
1808000,0.452504,-2.470816,8.259995,1.247783,-2.844942,2.201787
1812000,0.466869,-2.439692,8.465898,0.988241,-2.799140,2.720871
1816000,0.620098,-2.466028,8.494628,0.362287,-2.509064,2.934612
1820000,0.682347,-2.454057,8.540117,-0.080461,-1.822041,2.690337
1824000,0.826000,-2.439692,8.568848,0.133279,-1.348759,2.614001
1828000,0.816423,-2.442086,8.664616,0.224882,-0.310591,2.384994
1832000,0.782904,-2.511518,8.700529,0.774501,1.658875,2.125452
1836000,0.567426,-2.501941,8.556877,1.629462,2.620707,2.461329
1840000,0.574608,-2.439692,8.468291,1.751600,2.773379,2.751406
1844000,0.653617,-2.387019,8.281544,1.751600,3.063455,2.965146
1848000,0.634463,-2.365471,8.324639,1.614195,3.460402,2.614001
1852000,0.684742,-2.319981,8.111555,1.858470,3.704677,2.766673
1856000,0.718261,-2.274492,8.224083,1.965340,3.597806,2.552932
1860000,0.816423,-2.281674,8.348581,2.041676,3.414600,1.820108
1864000,0.715866,-2.322376,8.180987,2.377554,3.414600,1.255223
1868000,0.557849,-2.334347,8.054094,2.255417,2.269562,0.843009
1872000,0.474052,-2.324770,8.190564,2.026409,0.376432,0.171253
1876000,0.318429,-2.463634,8.216900,2.118012,-1.226621,0.293391
1880000,0.296881,-2.458845,8.559271,2.423356,-2.921278,0.720871
1884000,0.342371,-2.506729,8.791509,2.133279,-3.822041,1.255223
1888000,0.462081,-2.513912,8.935161,2.743967,-2.539598,2.079650
1892000,0.584185,-2.454057,8.894460,3.018775,0.361165,3.346826
1896000,0.634463,-2.401384,8.757990,3.034043,2.315363,3.804841
1900000,0.775721,-2.439692,8.817844,2.499691,3.613073,4.247589
1904000,0.699107,-2.334347,8.623915,2.179081,5.139791,4.629269
1908000,0.787692,-2.365471,8.602366,1.629462,6.483303,4.781940
1912000,0.818817,-2.288857,8.449138,1.721066,7.445135,5.026215
1916000,0.897826,-2.331953,8.236053,1.782134,7.445135,4.323925
1920000,0.928950,-2.341529,8.087613,1.766867,7.704676,4.125452
1924000,0.869095,-2.214637,7.793127,1.140913,7.979486,3.820108
1928000,0.864307,-2.231396,7.556100,0.194348,7.002387,2.965146
1932000,0.744597,-2.178724,7.290344,-1.256034,3.979486,1.896444
1936000,0.632069,-2.145205,7.206547,-2.965957,2.132157,1.438429
1940000,0.574608,-2.133234,7.290344,-4.767485,0.941318,0.904078
1944000,0.385466,-2.205060,7.395689,-5.851454,-0.844942,1.362093
1948000,0.430956,-2.334347,7.812280,-5.698782,-1.928911,1.545299
1952000,0.610521,-2.288857,7.991845,-5.515575,-1.425095,2.262856
1956000,0.672771,-2.363077,8.202535,-5.256034,-0.615934,2.461329
1960000,0.768539,-2.463634,8.394072,-4.507942,-1.180820,2.491864
1964000,0.780510,-2.513912,9.064447,-2.538476,-3.577766,2.430795
1968000,0.943315,-2.576161,9.358934,-0.569010,-3.898377,1.942245
1972000,1.115698,-2.595315,9.521740,0.835569,-3.470896,1.575833
1976000,1.225831,-2.523489,9.437943,1.950073,-2.325858,1.178887
1980000,1.249773,-2.557007,9.339781,3.247783,-0.157919,0.797207
1984000,1.273715,-2.525883,9.150639,4.041677,2.376432,0.537665
1988000,1.259350,-2.477999,8.999804,4.514959,4.590173,0.201787
1992000,1.041478,-2.482787,8.805874,4.713432,5.200860,-0.179892
1996000,1.036689,-2.430115,8.769960,4.637096,5.384066,-0.408900
