time_us,ax,ay,az,gx,gy,gz
0,-0.201113,-0.521936,9.205706,-1.988858,-4.447995,1.926978
4000,-0.196325,-0.519542,9.172187,-2.019392,-4.112117,2.766673
8000,-0.167594,-0.478840,9.179369,-1.958324,-2.509064,3.621635
12000,-0.059855,-0.435745,9.157822,-2.248400,-1.012881,4.415528
16000,0.000000,-0.395043,9.174581,-2.263667,0.177959,5.026215
20000,0.086191,-0.361524,9.109938,-2.080461,1.002386,5.072017
24000,0.169988,-0.296881,9.212888,-1.637713,0.666508,5.026215
28000,0.232238,-0.265756,9.318233,-1.393438,0.025287,4.827742
32000,0.268151,-0.268151,9.318233,-0.675881,0.071089,4.430795
36000,0.289698,-0.234632,9.421184,-0.080461,0.483302,3.988047
40000,0.299275,-0.229843,9.370906,0.438623,0.666508,3.743773
44000,0.220267,-0.179565,9.399636,0.942440,0.574905,3.453696
48000,0.227449,-0.143652,9.402030,1.354653,0.666508,3.316291
52000,0.193930,-0.033519,9.346964,1.446256,0.116890,3.239955
56000,0.337582,-0.038307,9.473856,1.644730,2.666508,3.835375
60000,0.253785,0.009577,9.548077,1.003508,-0.432728,3.010948
64000,0.476446,0.100556,9.495404,1.354653,2.208493,3.468963
68000,0.519542,0.234632,9.509769,1.125646,4.681776,3.591101
72000,0.469264,0.344765,9.459491,0.560760,6.971852,3.850643
76000,0.361524,0.397437,9.375694,0.179081,7.536737,3.697971
80000,0.385466,0.579397,9.325416,0.133279,9.048187,4.293391
84000,0.495600,0.438139,9.385271,2.194348,17.918417,6.736139
88000,-0.031125,0.890643,9.059659,-1.271301,6.788646,4.323925
92000,0.416591,1.070208,9.018958,-1.912522,5.292463,4.873543
96000,0.375890,1.144428,9.054871,-2.904888,6.910783,5.117818
100000,0.361524,1.391031,9.023746,-3.362904,7.582539,5.865910
104000,0.500388,1.601721,9.174581,-4.950690,6.498569,6.323925
108000,0.933739,1.649605,9.275137,-5.408706,7.826814,6.049116
112000,1.019930,1.889025,9.279925,-5.286569,12.132157,5.942245
116000,0.900220,2.111686,9.097966,-5.668247,13.200859,5.377360
120000,0.861913,2.248155,8.985439,-6.553743,12.666508,4.430795
124000,0.945710,2.300828,9.277532,-5.958323,15.322997,4.094917
128000,0.847547,2.379837,9.325416,-5.439240,12.773378,2.629268
132000,0.933739,2.372654,9.603143,-3.668247,13.781012,1.774307
136000,0.969652,2.396596,9.416395,-1.668247,13.017653,0.720871
140000,1.000776,2.372654,9.313444,-1.011759,11.781012,-1.401266
144000,1.094150,2.396596,8.920795,-0.080461,7.918417,-3.782945
148000,1.197101,2.444480,8.906430,-0.401072,7.155058,-6.240961
152000,1.137246,2.523489,8.528147,-0.462140,6.864982,-8.515770
156000,0.916979,2.446874,8.341399,-0.553744,1.765745,-11.340198
160000,0.883460,2.365471,8.374918,-1.927789,0.910783,-13.431801
164000,0.620098,2.492364,8.350976,-3.179698,0.391699,-14.821114
168000,0.541090,2.487576,8.221688,-4.309469,2.040554,-15.218060
172000,0.079009,2.557007,7.963115,-6.950690,-1.180820,-16.989052
176000,-0.124498,2.449268,7.903260,-8.523210,-0.829675,-16.302029
180000,-0.292093,2.422932,7.793127,-11.027026,-1.150285,-15.905083
184000,-0.469264,2.430115,7.651869,-14.263667,-2.173186,-15.080656
188000,-0.586579,2.434903,7.637504,-16.721682,-5.654102,-14.637908
192000,-0.363919,2.327164,7.618350,-19.317102,-5.226621,-13.477602
196000,-0.347159,2.319981,7.702147,-21.164431,-2.997614,-12.637908
200000,-0.426168,2.365471,7.599196,-22.920155,0.010020,-11.065389
204000,-0.430956,2.260126,7.654263,-25.881987,4.239028,-9.431801
208000,-0.591368,2.118869,8.054094,-28.004124,6.330631,-7.553937
212000,-0.610521,1.968034,8.135497,-27.408705,9.170325,-5.263861
216000,-0.550666,1.965640,8.204929,-27.943056,10.361164,-3.447068
220000,-0.533907,1.900996,8.169016,-28.110996,11.933683,-2.454701
224000,-0.414197,1.845930,7.987057,-27.988857,12.193226,-2.363098
228000,-0.562637,1.781286,7.766790,-28.263668,10.177958,-2.546304
232000,-0.598550,1.685518,7.673417,-28.355270,6.864982,-2.760045
236000,-0.584185,1.534683,7.721301,-28.141529,1.857348,-3.767678
240000,-0.567426,1.422156,7.625533,-27.256033,-4.264789,-5.034853
244000,-0.622492,1.271321,7.771579,-27.011759,-14.005248,-7.111189
248000,0.009577,1.115698,8.082825,-25.393438,-17.104485,-8.302030
252000,0.074220,0.972046,8.288726,-25.179697,-22.112118,-10.347831
256000,-0.076614,0.780510,8.559271,-24.523209,-27.837309,-12.424167
260000,0.007183,0.632069,8.844181,-23.500307,-30.844942,-13.263862
264000,0.134075,0.545878,9.114726,-22.843819,-33.425095,-14.302030
268000,0.260968,0.409408,9.255983,-22.141529,-32.646469,-15.050121
272000,0.253785,0.299275,9.287108,-21.943056,-31.440363,-15.431801
276000,0.203507,0.131681,9.179369,-22.736948,-30.188454,-15.737144
280000,0.033519,0.023942,9.203311,-23.820919,-27.944180,-14.607373
284000,-0.088585,-0.122104,9.241618,-25.485041,-29.608301,-14.363098
288000,-0.090980,-0.304064,9.454702,-25.683514,-27.684637,-13.095922
292000,-0.028730,-0.447716,9.686940,-24.736948,-25.180820,-11.447068
296000,-0.007183,-0.407014,9.672575,-23.943056,-22.066317,-10.424167
300000,0.071826,-0.548272,9.586384,-23.271299,-19.409828,-9.691342
304000,-0.131681,-0.612916,9.550470,-22.416338,-17.440363,-9.034854
308000,-0.237026,-0.730232,9.653421,-21.027025,-17.974712,-8.561572
312000,-0.320823,-0.938527,9.935937,-18.843819,-17.745707,-7.538671
316000,-0.598550,-1.063026,9.866506,-16.233131,-19.715172,-6.653174
320000,-0.730232,-1.106121,9.756371,-15.103362,-24.127384,-5.889815
324000,-0.641646,-1.216254,9.739613,-12.904889,-27.150286,-4.622640
328000,-0.438139,-1.278504,9.945514,-12.874354,-27.226622,-3.126457
332000,0.043096,-1.309628,10.184934,-9.576645,-25.547232,-2.118823
336000,0.210690,-1.213860,10.081984,-6.523210,-27.883110,-2.943251
340000,0.486023,-1.235408,9.907207,-3.164430,-30.875477,-4.332564
344000,0.919373,-1.276109,10.010158,-0.202598,-33.287689,-6.424167
348000,0.928950,-1.359907,10.005369,3.324119,-36.493797,-9.187526
352000,0.797269,-1.240196,9.830592,6.118012,-41.928913,-11.492869
356000,0.763750,-1.216254,9.842564,7.751600,-46.722805,-12.912717
360000,1.007959,-1.120486,9.964667,8.606562,-48.753338,-14.179893
364000,1.144428,-1.132457,9.830592,8.514958,-47.226624,-14.256228
368000,1.304840,-1.122881,10.067618,9.873737,-39.226624,-13.340198
372000,1.103727,-1.108515,9.641450,9.598928,-33.287689,-12.271496
376000,0.986411,-0.984017,9.162610,7.904272,-28.692270,-10.775312
380000,0.931344,-0.871489,8.805874,4.530226,-24.722805,-9.294396
384000,0.960075,-0.816423,8.676587,1.003508,-18.997614,-7.141724
388000,0.797269,-0.739808,8.501810,-2.828552,-13.089217,-4.714243
392000,0.873884,-0.792481,8.204929,-6.859087,-7.684637,-1.981419
396000,1.086968,-0.864307,8.121132,-10.691149,-0.631201,0.247589
400000,1.244985,-0.995988,8.015787,-13.591912,4.849715,1.713238
404000,1.192312,-1.149217,7.900866,-15.790385,4.574905,0.736139
408000,1.482011,-1.254562,7.999028,-16.126263,6.055821,0.339192
412000,1.745373,-1.355118,8.307879,-14.431607,6.666509,-1.324930
416000,1.642422,-1.405396,8.341399,-14.294202,1.307730,-4.378365
420000,1.690306,-1.472434,8.497022,-13.729316,-6.035781,-8.088289
424000,1.690306,-1.527501,8.365341,-13.515576,-5.898377,-9.141725
428000,1.589750,-1.568202,8.377312,-14.233132,-8.203721,-10.989053
432000,1.470040,-1.721431,8.468291,-14.370538,-9.165553,-11.584473
436000,1.450886,-1.817199,8.343793,-15.240767,-12.600668,-12.866915
440000,1.663970,-1.848324,8.384495,-16.477407,-5.593033,-11.324930
444000,1.561020,-1.920150,8.300697,-18.798018,-0.112117,-10.286762
448000,1.450886,-2.068590,8.173804,-21.637712,4.147425,-9.019587
452000,1.362301,-2.205060,8.195353,-23.347635,6.422234,-7.752411
456000,1.333570,-2.384625,8.238448,-24.706415,12.544371,-5.431800
460000,1.335965,-2.489970,8.221688,-25.485041,19.765745,-2.622640
464000,1.331176,-2.715025,7.989451,-26.263666,25.124523,-0.424167
468000,1.225831,-2.968810,7.541735,-27.759850,28.880249,1.484230
472000,1.256956,-3.038242,7.580042,-29.988857,33.170326,4.155986
476000,1.122881,-3.308787,7.393295,-32.446873,34.345898,6.155986
480000,1.362301,-3.529053,7.161057,-32.965958,34.803913,8.354459
484000,1.505953,-3.904943,6.787562,-33.637711,33.933685,9.087283
488000,1.857901,-3.900155,6.270414,-36.630077,33.613071,9.316291
492000,2.231396,-4.168305,5.954380,-38.965958,34.315365,9.499497
496000,2.284068,-4.311957,5.791574,-39.958324,30.040554,8.232322
500000,2.691083,-4.395754,5.875371,-40.019390,23.216125,4.873543
504000,3.485958,-4.393360,6.105214,-39.729317,20.574905,0.415528
508000,3.981557,-4.335899,6.251261,-41.317101,17.399332,-6.668441
512000,4.141969,-4.316746,6.335058,-42.217865,15.109256,-15.034854
516000,4.350265,-4.278439,6.500257,-44.599545,9.124523,-25.263861
520000,4.656722,-4.367024,6.794744,-46.767483,7.246661,-36.592106
524000,4.865018,-4.716578,7.340622,-46.095726,17.307730,-46.134090
528000,4.110844,-5.011064,7.462727,-46.630077,14.361164,-58.790577
532000,3.703830,-5.255273,7.661446,-46.523209,15.078722,-70.240959
536000,2.609680,-5.568913,7.666234,-47.088093,15.826813,-78.973785
540000,1.632846,-5.887342,7.795521,-47.851452,15.948952,-85.966148
544000,0.543484,-6.409278,8.039729,-48.446873,15.613073,-91.156990
548000,-0.509965,-6.734890,8.525752,-48.752216,16.987120,-94.622643
552000,-1.482011,-7.266402,8.908825,-44.981224,17.490936,-94.821114
556000,-2.621651,-7.527370,8.592790,-41.317101,21.048187,-92.912712
560000,-4.106056,-7.647080,8.698134,-41.423973,17.475668,-91.202789
564000,-4.967968,-8.034941,9.131485,-40.294201,8.620707,-88.256226
568000,-5.652710,-8.147469,9.497798,-35.973591,0.849715,-84.439430
572000,-6.387730,-8.118738,9.763555,-32.095726,-7.654102,-78.134087
576000,-6.849811,-8.051701,10.084377,-27.378170,-14.509065,-69.370728
580000,-7.007828,-7.841011,10.601525,-22.645346,-23.928911,-60.653175
584000,-6.792350,-7.862558,10.907983,-17.836185,-33.043415,-51.859280
588000,-6.519411,-7.726089,11.353305,-12.309468,-40.066315,-42.546303
592000,-6.021417,-7.453150,11.846510,-8.202599,-46.371658,-33.126457
596000,-5.303157,-7.481880,12.231977,-4.355270,-45.516697,-22.393631
600000,-4.632780,-6.991069,12.437878,-1.240766,-48.035782,-12.927984
604000,-3.579332,-6.749255,12.346898,2.408089,-45.638836,-3.477602
608000,-2.396596,-6.588843,12.289437,6.438623,-37.348759,6.583467
612000,-1.515530,-5.892130,11.808203,9.950073,-28.570133,16.125452
616000,-0.296881,-5.377377,11.336545,14.194347,-20.402195,22.736139
620000,0.656011,-4.845864,10.283096,20.224884,-15.562500,27.316292
624000,1.391031,-4.084508,9.239224,18.209616,-18.570133,28.965147
628000,2.691083,-3.509900,8.252813,12.911905,-17.654102,29.499498
632000,3.306392,-3.059790,7.412448,12.240149,-16.524332,29.072018
636000,4.031836,-2.674323,6.390124,13.324119,-18.753340,25.621635
640000,4.589684,-2.233790,5.916072,16.285952,-15.440362,22.094917
644000,4.620809,-1.884237,5.322310,14.377554,-18.371660,16.155987
648000,4.766856,-1.659182,5.145139,15.598928,-23.883110,9.560566
652000,4.680665,-1.458069,4.606444,13.430989,-31.135019,2.659803
656000,4.702212,-1.458069,4.920084,14.881371,-24.463263,-0.958518
660000,4.283227,-1.316811,4.580108,19.980608,-20.554867,-4.744777
664000,3.979163,-1.122881,4.422091,19.201982,-15.165553,-6.882182
668000,3.811569,-1.146823,4.321534,17.003510,-5.928911,-7.935617
672000,3.263297,-1.098939,3.979163,14.972974,-2.493797,-9.950885
676000,2.844312,-1.237802,4.137180,11.812669,1.093989,-9.981419
680000,2.549825,-1.369483,4.740520,8.453890,4.574905,-9.874549
684000,2.296039,-1.503559,5.137957,6.866104,9.002386,-8.821114
688000,2.226608,-1.702277,5.576096,7.751600,16.605440,-5.981419
692000,1.905785,-1.647211,5.961562,7.278317,19.842081,-4.317297
696000,1.400608,-1.630451,6.009446,6.118012,18.742844,-2.607373
700000,1.522712,-1.630451,5.980716,5.064577,21.185593,0.766673
704000,1.515530,-1.587356,6.287174,4.026409,22.483301,3.774307
708000,1.630451,-1.587356,6.677429,2.056943,18.040554,4.919345
712000,1.920150,-1.412579,7.309498,1.721066,12.529103,5.056749
716000,2.372654,-1.443704,7.441179,1.385188,9.170325,5.484231
720000,2.518700,-1.362301,7.740454,2.484425,11.322997,5.545299
724000,2.394202,-1.240196,7.817069,0.972974,14.452767,6.079650
728000,2.351106,-1.225831,7.905654,-0.370538,14.635974,6.186521
732000,2.351106,-1.199495,8.121132,-1.118629,15.368798,6.614001
736000,2.451663,-1.240196,8.331821,0.301218,19.628340,7.438429
740000,2.597709,-1.230620,8.599973,1.568394,24.101622,7.346826
744000,2.497152,-1.134852,8.171411,1.079844,24.391699,5.407895
748000,2.327164,-1.144428,7.879318,1.095111,24.529104,3.545299
752000,2.126051,-1.173159,7.584831,0.087478,24.040554,2.262856
756000,1.924938,-1.158794,7.513005,-1.759850,23.048187,1.010948
760000,1.793257,-1.326388,7.572860,-5.118629,19.460402,-1.218060
764000,1.716643,-1.534683,7.790732,-5.988858,19.078722,-1.462335
768000,1.695095,-1.656788,7.891289,-5.973591,23.567272,-1.721877
772000,1.276109,-1.692701,7.936779,-5.530843,22.559637,-3.156991
776000,0.940921,-1.754950,7.867347,-4.401072,15.277195,-4.943251
780000,1.007959,-1.673547,7.915231,-2.156797,11.277195,-6.302029
784000,0.924162,-1.759738,7.862558,-0.263667,8.666508,-7.385999
788000,0.749385,-1.731008,7.671022,0.637096,3.811547,-8.851648
792000,0.593762,-1.692701,7.371747,0.026409,-0.280056,-10.195160
796000,0.351948,-1.709460,7.352593,-1.790385,-3.562499,-10.286762
800000,0.181959,-1.697489,7.357382,-4.767485,-9.196087,-10.195160
804000,0.136469,-1.699883,7.388506,-8.874354,-14.051049,-9.630274
808000,0.093374,-1.807622,7.690176,-13.194964,-17.669371,-7.767678
812000,0.404620,-1.944092,8.085219,-16.172064,-18.417461,-5.798213
816000,0.701501,-2.051831,8.583213,-17.240767,-17.135019,-3.737144
820000,1.060631,-2.102109,9.050082,-17.271299,-14.295324,-1.813480
824000,1.266533,-2.147599,9.416395,-17.775116,-9.822042,-0.500503
828000,1.443704,-2.207454,9.739613,-18.049927,-8.386927,-0.027220
832000,1.687912,-2.145205,9.816227,-18.187330,-8.661736,-0.683709
836000,2.102109,-2.078167,10.134656,-17.469774,-6.234255,-1.767678
840000,2.188300,-2.114080,9.964667,-14.935424,-5.272423,-4.179892
844000,2.070984,-2.161964,9.902418,-12.401073,-3.409827,-5.584472
848000,1.996764,-2.279280,9.677363,-8.065194,-4.509064,-7.645541
852000,1.786075,-2.209848,9.495404,-3.256034,-4.814407,-9.828747
856000,1.618480,-2.264915,9.265560,0.331753,-7.867843,-11.630274
860000,1.333570,-2.178724,9.023746,2.163814,-11.440362,-14.073022
864000,1.041478,-2.195483,8.748413,2.453890,-14.753339,-15.706610
868000,0.797269,-2.193089,8.657434,2.774501,-15.226622,-16.057755
872000,0.462081,-2.190695,8.420407,0.957707,-19.348759,-16.149357
876000,0.351948,-2.209848,8.394072,-0.935423,-21.425095,-15.599740
880000,0.222661,-2.308010,8.449138,-3.057560,-22.539598,-14.821114
884000,0.486023,-2.334347,8.729259,-4.538477,-20.692270,-13.477602
888000,0.335188,-2.372654,8.710106,-6.141530,-19.547232,-12.164625
892000,0.349553,-2.473210,8.738836,-7.118629,-16.982347,-10.363098
896000,0.418985,-2.463634,8.717288,-8.538477,-14.356393,-8.683709
900000,0.476446,-2.382231,8.760384,-10.370538,-12.951813,-7.889815
904000,0.679953,-2.456451,8.939949,-11.576645,-8.096850,-5.813479
908000,0.553061,-2.468422,8.925584,-11.332370,-6.295323,-4.683709
912000,0.708684,-2.506729,8.810662,-10.950690,-3.211354,-3.080655
916000,0.799663,-2.477999,8.676587,-11.149163,0.666508,-1.721877
920000,0.964863,-2.449268,8.554482,-10.523210,4.712310,-0.668442
924000,1.192312,-2.454057,8.461109,-9.958323,8.773378,-0.011953
928000,1.175553,-2.343924,8.372523,-9.332370,10.452767,-0.469968
932000,1.055843,-2.375048,8.085219,-9.210233,9.490935,-1.721877
936000,0.916979,-2.341529,7.922413,-9.439240,2.742844,-3.981419
940000,1.154005,-2.422932,8.099585,-7.775118,5.674142,-4.011953
944000,0.658405,-2.406173,8.262390,-8.599545,-2.615934,-6.531037
948000,0.622492,-2.501941,8.248025,-8.446874,-3.974713,-5.844014
952000,0.636858,-2.540248,8.858546,-7.820919,-2.646469,-5.279129
956000,0.409408,-2.655170,8.947132,-6.278934,-2.860209,-4.485235
960000,0.476446,-2.621651,9.033323,-3.866720,-1.226621,-2.531037
964000,0.758962,-2.533065,9.232041,-3.301835,2.147424,-0.760045
968000,0.806846,-2.468422,9.344569,-3.133896,2.544371,-0.134090
972000,0.893037,-2.439692,9.382876,-2.233133,1.704676,-0.042487
976000,0.979228,-2.336741,9.296685,-0.920156,3.048188,0.552933
980000,1.216254,-2.408567,9.358934,-0.141530,7.231394,1.804841
984000,1.108515,-2.255338,9.126697,-0.950690,7.277195,1.606368
988000,1.340753,-2.209848,9.028535,-0.217866,9.719943,1.804841
992000,1.529895,-2.159570,8.774749,-0.156797,11.460402,1.224688
996000,1.532289,-2.078167,8.690952,-0.446873,11.032920,-0.240961
1000000,1.374272,-2.197877,8.511387,-0.462140,10.132157,-1.615006
1004000,1.199495,-2.224213,8.367735,-0.233133,7.521471,-3.233327
1008000,1.034295,-2.176329,8.322245,-0.569010,5.231394,-4.454701
1012000,0.826000,-2.308010,8.259995,-1.637713,2.727577,-5.370731
1016000,0.651223,-2.319981,8.329428,-2.202598,2.544371,-5.172258
1020000,0.430956,-2.389413,8.415619,-3.469774,1.887883,-5.065388
1024000,0.289698,-2.466028,8.420407,-3.683514,0.162692,-5.095922
1028000,0.316035,-2.523489,8.547300,-4.492675,-0.142652,-4.179892
1032000,0.177171,-2.600103,8.650250,-3.988858,0.788646,-2.821113
1036000,0.143652,-2.616863,8.736442,-4.095729,1.399333,-1.492869
1040000,0.225055,-2.597709,8.827422,-4.049927,1.857348,0.140719
1044000,0.411803,-2.549825,8.851364,-4.355270,3.261928,1.835375
1048000,0.598550,-2.442086,8.595184,-4.202599,3.933684,2.720871
1052000,0.751779,-2.339135,8.540117,-4.172065,4.697043,3.209421
1056000,0.818817,-2.346318,8.520964,-3.820919,4.864982,2.995681
1060000,0.964863,-2.252944,8.516175,-3.591912,4.849715,2.736139
1064000,1.003170,-2.274492,8.475474,-3.851454,5.032921,2.018581
1068000,1.053449,-2.272097,8.441956,-4.507942,4.605440,1.407894
1072000,1.168370,-2.274492,8.635885,-4.950690,5.399333,0.461329
1076000,1.132457,-2.245761,8.690952,-5.423973,6.956585,-0.347831
1080000,1.024718,-2.205060,8.432379,-5.805653,8.055821,-0.744777
1084000,0.955287,-2.238579,8.477868,-6.202599,7.307730,-1.248594
1088000,0.873884,-2.224213,8.372523,-6.599545,6.895516,-1.294396
1092000,1.010353,-2.238579,8.508993,-6.889622,11.124523,-0.729510
1096000,0.936133,-2.238579,8.599973,-7.607179,9.093989,-1.905083
1100000,0.948104,-2.240973,8.774749,-7.652981,6.422234,-2.485235
1104000,1.041478,-2.188300,8.848969,-6.141530,8.116890,-2.485235
1108000,1.070208,-2.281674,8.892065,-5.133897,7.796279,-3.004319
1112000,1.022324,-2.219425,8.813056,-5.057561,7.765746,-3.630274
1116000,0.955287,-2.240973,8.544906,-4.920156,6.559639,-4.424167
1120000,0.854730,-2.252944,8.508993,-4.599545,7.765746,-4.698976
1124000,0.780510,-2.300828,8.413225,-4.095729,7.567272,-5.004319
1128000,0.593762,-2.252944,8.434772,-4.110995,7.781012,-4.882182
1132000,0.598550,-2.348712,8.463503,-3.729316,8.300096,-4.912716
1136000,0.577003,-2.336741,8.552089,-3.454507,7.826814,-5.233327
1140000,0.452504,-2.360683,8.317456,-2.721682,5.292463,-5.920350
1144000,0.277727,-2.377442,8.056489,-2.324736,2.315363,-6.179892
1148000,0.191536,-2.372654,8.188169,-3.118629,-0.188453,-6.424167
1152000,0.093374,-2.542642,8.133103,-4.263667,-2.463263,-5.981419
1156000,0.074220,-2.614468,8.386889,-4.675881,-4.173186,-5.340197
1160000,0.035913,-2.669535,8.585608,-4.172065,-5.318224,-3.981419
1164000,0.153229,-2.724602,8.791509,-3.652980,-5.241889,-2.439434
1168000,0.301669,-2.715025,8.860941,-2.462140,-2.951812,-1.172258
1172000,0.385466,-2.655170,8.678981,-2.141530,0.910783,1.117818
1176000,0.466869,-2.482787,8.532935,-2.706415,4.468035,2.797207
1180000,0.639252,-2.442086,8.643068,-4.721683,7.903150,4.110185
1184000,0.780510,-2.317587,8.662222,-5.271301,9.628340,4.934612
1188000,0.967257,-2.286463,8.702923,-5.347637,10.941318,5.224689
1192000,1.113304,-2.315193,8.568848,-4.843820,11.521470,5.255223
1196000,1.156399,-2.229002,8.554482,-4.859087,10.880248,4.308658
1200000,1.189918,-2.205060,8.499416,-4.538477,10.635974,3.209421
1204000,1.149217,-2.209848,8.415619,-4.019392,10.040554,2.690337
1208000,1.041478,-2.233790,8.372523,-3.103362,8.834447,1.545299
1212000,0.912191,-2.396596,8.329428,-1.179698,6.437501,-0.011953
1216000,0.876278,-2.334347,8.291121,0.438623,3.552005,-1.324930
1220000,0.675165,-2.420538,8.295909,1.385188,-0.722805,-2.668442
1224000,0.543484,-2.420538,8.432379,2.072211,-5.318224,-3.752411
1228000,0.316035,-2.557007,8.657434,2.576027,-8.218987,-4.256228
1232000,0.220267,-2.504335,8.688558,3.324119,-11.058682,-4.378365
1236000,0.404620,-2.561796,8.822633,2.545493,-10.615934,-2.958518
1240000,0.294487,-2.621651,9.155427,2.713432,-5.516697,-1.111190
1244000,0.265756,-2.614468,8.995016,2.377554,-4.524331,0.155986
1248000,0.344765,-2.609680,8.980651,2.408089,-2.081583,1.896444
1252000,0.574608,-2.506729,8.748413,1.492058,1.078722,3.453696
1256000,0.696713,-2.420538,8.518570,0.698165,4.864982,5.133085
1260000,0.916979,-2.420538,8.140285,0.606562,7.338264,5.697971
1264000,1.043872,-2.324770,7.917625,0.255417,6.391699,5.056749
1268000,1.233014,-2.303222,7.943961,0.240150,3.887883,3.407894
1272000,1.355118,-2.212242,7.929596,0.194348,1.719944,1.239955
1276000,1.376666,-2.205060,8.101978,0.301218,-1.073950,-1.218060
1280000,1.333570,-2.200271,8.010999,-0.126262,-4.081583,-3.370732
1284000,1.237802,-2.305616,8.111555,-0.660614,-5.302957,-5.416533
1288000,1.024718,-2.346318,8.022970,-1.561377,-5.837308,-6.851647
1292000,0.648829,-2.403779,8.101978,-2.141530,-6.402194,-7.538671
1296000,0.375890,-2.533065,8.180987,-2.385804,-7.409827,-7.462335
1300000,0.088585,-2.509123,8.264784,-2.385804,-8.768606,-6.408899
1304000,0.004788,-2.583344,8.250419,-2.660614,-10.249522,-5.691342
1308000,0.007183,-2.588132,8.283937,-3.072828,-10.463263,-4.729510
1312000,0.064643,-2.590526,8.396465,-3.576644,-9.791507,-3.263861
1316000,0.098162,-2.533065,8.477868,-3.973591,-8.692270,-2.134090
1320000,0.232238,-2.547431,8.549694,-4.584278,-8.035782,-0.821113
1324000,0.481235,-2.580950,8.712500,-5.027026,-7.745705,-0.225693
1328000,0.557849,-2.621651,8.836999,-4.889622,-7.699903,0.171253
1332000,0.713472,-2.528277,8.899248,-4.034659,-8.173186,0.354459
1336000,0.871489,-2.482787,9.076419,-3.179698,-7.822041,0.491864
1340000,0.897826,-2.494758,9.275137,-2.630080,-6.768606,0.262856
1344000,0.967257,-2.588132,9.074024,-1.683514,-5.180820,0.049116
1348000,1.055843,-2.530671,9.119514,-0.538476,-2.646469,0.461329
1352000,1.185130,-2.609680,9.145850,0.163814,-0.096850,0.155986
1356000,1.211466,-2.590526,9.258378,1.217249,1.811547,-0.134090
1360000,1.187524,-2.647987,9.188946,2.011142,3.170325,-0.805846
1364000,0.998382,-2.559402,8.839393,2.469157,4.300097,-1.279129
1368000,0.794875,-2.628834,8.616732,2.972974,4.971852,-1.737144
1372000,0.720655,-2.614468,8.386889,2.835569,4.834447,-1.844014
1376000,0.562637,-2.518700,8.157045,2.698165,4.727577,-1.828747
1380000,0.478840,-2.523489,8.085219,2.942440,4.666509,-1.782945
1384000,0.330400,-2.477999,7.893683,2.698165,4.208493,-1.324930
1388000,0.237026,-2.410961,7.675811,1.537859,2.758112,-0.821113
1392000,0.146046,-2.418144,7.773973,0.224882,1.689409,0.262856
1396000,0.203507,-2.444480,7.903260,-0.614812,0.971852,1.163620
1400000,0.248997,-2.434903,8.013393,-1.027026,0.788646,2.323925
1404000,0.392649,-2.449268,8.252813,-1.576644,-0.112117,3.407894
1408000,0.574608,-2.387019,8.549694,-1.622446,-0.951812,3.316291
1412000,0.802058,-2.513912,8.659827,-1.469774,-1.348759,3.209421
1416000,0.885855,-2.398990,8.753201,-1.637713,-1.776240,2.812474
1420000,0.914585,-2.540248,8.992621,-1.515576,-2.020514,2.858276
1424000,0.905008,-2.439692,8.983045,-0.767484,-4.081583,2.293390
1428000,1.240196,-2.509123,9.088389,-0.034660,0.926050,2.446062
1432000,1.120486,-2.482787,9.016563,0.652363,2.880249,2.354459
1436000,1.094150,-2.446874,8.856153,1.568394,3.979486,2.507131
1440000,1.209072,-2.449268,8.710106,2.148547,6.101623,2.629268
1444000,1.235408,-2.406173,8.678981,2.026409,6.590173,2.033848
1448000,1.312023,-2.401384,8.599973,2.209615,6.101623,1.056749
1452000,1.359907,-2.444480,8.743625,3.446256,5.887883,0.079650
1456000,1.379060,-2.408567,8.631097,4.362287,5.994753,-0.958518
1460000,1.233014,-2.439692,8.576031,5.003509,7.261929,-1.737144
1464000,1.089362,-2.454057,8.396465,5.369921,9.017653,-1.844014
1468000,0.914585,-2.528277,8.458714,5.934806,10.834447,-1.263861
1472000,0.833182,-2.379837,8.300697,6.148546,11.872615,-0.866915
1476000,0.691924,-2.379837,8.099585,6.606562,10.620707,-0.653174
1480000,0.677559,-2.224213,7.881712,5.934806,8.300096,-1.019587
1484000,0.675165,-2.183512,7.651869,4.850837,5.750478,-1.004319
1488000,0.648829,-2.159570,7.501034,3.110379,3.658875,-0.897449
1492000,0.718261,-2.161964,7.651869,1.553127,2.651241,-0.454701
1496000,0.660800,-2.099715,7.671022,0.102745,1.750478,0.155986
1500000,0.658405,-2.226608,7.781156,-0.828552,1.170325,0.629268
1504000,0.572214,-2.298434,7.908048,-0.904888,-0.554866,1.163620
1508000,0.675165,-2.250550,8.058883,-1.561377,-2.325858,1.224688
1512000,0.790087,-2.221819,8.030152,-2.049927,-4.356392,0.904078
1516000,0.751779,-2.279280,8.264784,-2.706415,-6.051049,0.522398
1520000,0.794875,-2.305616,8.341399,-2.752217,-7.241889,0.323925
1524000,0.837971,-2.382231,8.458714,-2.599545,-7.715171,0.201787
1528000,0.768539,-2.427721,8.781932,-2.584278,-7.501431,0.400261
1532000,0.893037,-2.554613,8.719683,-1.805652,-7.150285,0.904078
1536000,0.888249,-2.549825,8.832211,-0.263667,-6.356392,1.026215
1540000,0.972046,-2.506729,8.911219,1.018775,-5.089217,1.255223
1544000,0.960075,-2.525883,8.616732,1.980608,-4.447995,0.919345
1548000,0.957681,-2.533065,8.453926,2.270684,-4.661736,0.934612
1552000,0.818817,-2.511518,8.226477,1.476791,-5.883110,0.873543
1556000,0.885855,-2.468422,8.274361,1.385188,-6.386927,0.201787
1560000,0.893037,-2.521094,8.240842,1.782134,-7.226621,0.644536
1564000,0.967257,-2.461239,8.288726,2.087478,-7.318224,0.232322
1568000,1.034295,-2.389413,8.054094,2.209615,-7.776239,-0.240961
1572000,1.007959,-2.272097,7.977480,1.644730,-8.570133,-0.790579
1576000,0.950498,-2.355895,8.039729,0.667630,-8.707538,-1.584472
1580000,0.905008,-2.255338,8.003817,-0.721682,-8.661736,-1.767678
1584000,0.888249,-2.250550,8.006210,-2.187331,-7.852575,-1.630274
1588000,0.936133,-2.188300,8.015787,-3.485041,-5.913644,-1.385999
1592000,0.909797,-2.331953,8.250419,-4.736950,-3.241888,-0.622640
1596000,0.744597,-2.252944,8.243237,-5.729317,-1.776240,0.018581
1600000,0.802058,-2.324770,8.259995,-7.362904,-0.646469,0.812474
1604000,0.802058,-2.418144,8.295909,-8.645347,0.376432,1.346826
1608000,0.943315,-2.348712,8.339005,-9.912522,1.735211,1.453696
1612000,1.029507,-2.351106,8.458714,-10.431606,1.994753,1.102551
1616000,1.043872,-2.482787,8.839393,-9.683515,2.300096,0.507131
1620000,0.974440,-2.540248,9.085996,-7.927790,1.277195,0.018581
1624000,0.751779,-2.566584,9.193734,-5.851454,0.315363,-0.286762
1628000,0.833182,-2.621651,9.119514,-4.187331,-0.310591,-0.790579
1632000,0.782904,-2.628834,8.904037,-2.569010,-0.432728,-0.882182
1636000,0.691924,-2.571373,8.825027,-1.393438,-0.936545,-0.622640
1640000,0.593762,-2.590526,8.753201,-0.599545,-2.386927,-0.592106
1644000,0.751779,-2.652776,8.875306,0.438623,-3.760972,-0.775312
1648000,0.895431,-2.636016,9.188946,1.690531,-5.562499,-1.447067
1652000,0.940921,-2.518700,9.311050,3.644730,-5.989980,-1.508136
1656000,0.945710,-2.592921,9.121908,5.415722,-5.745705,-1.859281
1660000,0.938527,-2.422932,8.949526,6.438623,-4.417461,-1.721877
1664000,0.883460,-2.353500,8.772355,6.621829,-4.799140,-1.553938
1668000,0.866701,-2.317587,8.597578,6.392821,-2.982346,-1.263861
1672000,0.950498,-2.319981,8.573636,6.453890,-1.150285,-0.958518
1676000,0.936133,-2.312799,8.535329,6.270684,0.651241,-0.637907
1680000,0.873884,-2.310405,8.556877,5.461524,2.101623,-0.363098
1684000,0.933739,-2.315193,8.595184,4.652363,2.788646,-0.195159
1688000,0.926556,-2.410961,8.645462,4.331753,3.475669,-0.027220
1692000,0.861913,-2.480393,8.671799,4.438623,4.345898,-0.363098
1696000,0.873884,-2.425326,8.676587,4.408089,4.819180,-0.302029
1700000,0.864307,-2.489970,8.504205,4.301219,4.926051,-0.469968
1704000,0.699107,-2.521094,8.463503,4.163814,4.437501,-0.775312
1708000,0.586579,-2.454057,8.355764,4.255417,3.842081,-0.500503
1712000,0.531513,-2.466028,8.303091,4.514959,3.200860,-0.561571
1716000,0.452504,-2.375048,7.994239,4.133279,2.620707,-0.408900
1720000,0.390255,-2.449268,7.984663,3.659997,2.269562,0.033849
1724000,0.265756,-2.425326,7.721301,2.728699,1.338264,0.949879
1728000,0.399832,-2.372654,7.855376,1.721066,0.742844,2.430795
1732000,0.375890,-2.434903,7.960721,1.385188,2.239028,3.728505
1736000,0.397437,-2.413355,7.958326,1.263050,3.002386,5.072017
1740000,0.687136,-2.264915,7.955932,-0.614812,1.842081,5.896444
1744000,1.065420,-2.269703,8.051701,-2.156797,3.933684,6.140719
1748000,1.144428,-2.171541,8.185776,-4.324736,4.300097,5.759039
1752000,1.276109,-2.229002,8.348581,-4.935423,3.246661,4.690337
1756000,1.429338,-2.250550,8.614338,-5.149163,2.819180,3.957513
1760000,1.556231,-2.308010,8.597578,-5.225499,2.971852,2.858276
1764000,1.513135,-2.281674,8.578424,-4.706415,2.773379,1.575833
1768000,1.458069,-2.308010,8.626308,-4.141530,2.116890,0.446062
1772000,1.424550,-2.389413,8.815451,-3.485041,2.529104,-0.622640
1776000,1.206678,-2.494758,8.944737,-2.660614,3.093989,-1.416533
1780000,0.984017,-2.528277,9.030929,-0.202598,-2.615934,-3.355464
1784000,1.110910,-2.683900,8.781932,1.629462,-0.035782,-2.653174
1788000,0.735020,-2.650381,8.805874,2.682898,4.147425,-2.027220
1792000,0.296881,-2.636016,8.389283,2.774501,-1.165553,-2.561571
1796000,0.378284,-2.597709,8.219295,3.125646,-2.432728,-2.225693
1800000,0.313640,-2.609680,8.482656,3.110379,-2.356392,-1.706609
1804000,0.174777,-2.590526,8.458714,2.927173,-3.745705,-1.324930
1808000,0.208296,-2.568978,8.370130,2.820302,-5.913644,-0.790579
1812000,0.292093,-2.537854,8.396465,2.743967,-9.272423,-0.607373
1816000,0.416591,-2.590526,8.566454,2.957707,-10.799141,-0.332564
1820000,0.529119,-2.566584,8.669404,3.125646,-10.341125,-0.195159
1824000,0.567426,-2.585738,8.777143,3.430989,-9.180820,0.491864
1828000,0.603339,-2.554613,8.803479,3.125646,-7.806774,1.301024
1832000,0.524330,-2.518700,8.851364,2.682898,-5.425095,2.598734
1836000,0.744597,-2.595315,8.983045,2.240149,-3.043415,3.926979
1840000,0.885855,-2.458845,9.004593,2.056943,-1.776240,4.766673
1844000,1.067814,-2.415750,8.901642,2.194348,-2.035782,5.301024
1848000,1.357512,-2.343924,8.671799,2.179081,-1.012881,4.949879
1852000,1.496376,-2.226608,8.676587,1.950073,0.513837,4.247589
1856000,1.446098,-2.389413,8.734048,2.438623,1.460402,3.850643
1860000,1.484405,-2.336741,8.678981,3.889004,2.406966,3.591101
1864000,1.570596,-2.322376,8.604761,5.568394,3.826814,3.362093
1868000,1.611298,-2.274492,8.444349,6.606562,5.231394,2.293390
1872000,1.544260,-2.176329,7.903260,7.125646,5.368799,1.163620
1876000,1.343147,-2.138022,7.544129,6.927173,4.193226,0.064383
1880000,1.209072,-2.030283,7.326257,5.308852,2.987119,-0.851648
1884000,0.952892,-2.018312,7.252037,3.430989,-0.280056,-2.210426
1888000,0.811634,-2.047042,7.249643,1.430989,-4.234255,-2.851648
1892000,0.790087,-2.073379,7.546524,0.041676,-5.623568,-3.095922
1896000,0.761356,-2.118869,7.723695,-0.233133,-6.188453,-2.866915
1900000,0.725443,-2.178724,7.972692,-0.996492,-6.738071,-2.592106
1904000,0.699107,-2.281674,8.200141,-1.714049,-6.432728,-2.576838
1908000,0.562637,-2.343924,8.374918,-2.355270,-6.463263,-2.302029
1912000,0.562637,-2.343924,8.461109,-3.652980,-6.020514,-1.767678
1916000,0.505177,-2.434903,8.765172,-4.401072,-4.631201,-1.065388
1920000,0.512359,-2.494758,8.951921,-4.691149,-4.081583,-0.134090
1924000,0.617704,-2.513912,9.157822,-3.866720,-3.928911,0.415528
1928000,0.677559,-2.552219,9.279925,-2.584278,-2.692270,1.316291
1932000,0.684742,-2.533065,9.102755,-1.393438,-1.867843,1.881177
1936000,0.806846,-2.535460,8.966286,-0.752217,-1.455629,2.568200
1940000,0.940921,-2.480393,9.133880,0.667630,-0.493797,2.904078
1944000,1.070208,-2.506729,8.911219,2.087478,1.475669,3.301024
1948000,1.199495,-2.485181,8.710106,3.263050,3.613073,3.591101
1952000,1.218649,-2.391808,8.468291,3.995875,4.971852,3.484231
1956000,1.209072,-2.317587,8.300697,3.659997,4.803913,2.995681
1960000,1.218649,-2.255338,8.018182,3.492058,4.513837,2.690337
1964000,1.142034,-2.205060,7.941567,2.743967,4.223761,1.652169
1968000,1.120486,-2.114080,7.668628,1.430989,4.071089,1.255223
1972000,1.051055,-2.272097,7.714118,0.285951,3.521470,0.675070
1976000,0.928950,-2.243367,7.898471,-0.385804,2.010020,0.155986
1980000,0.905008,-2.296039,8.018182,-0.920156,-0.600667,-0.592106
1984000,0.928950,-2.300828,8.015787,-1.439240,-2.967079,-1.401266
1988000,0.811634,-2.396596,8.274361,-1.836186,-4.982347,-2.027220
1992000,0.691924,-2.408567,8.324639,-1.790385,-5.791507,-2.134090
1996000,0.670376,-2.394202,8.434772,-2.004125,-5.196087,-1.508136
