time_us,ax,ay,az,gx,gy,gz
0,-0.347159,-1.276109,8.614338,-2.187331,-2.661736,-1.141724
4000,-0.375890,-1.280898,8.784326,-1.637713,0.269562,-1.385999
8000,-0.701501,-1.395820,8.734048,-1.485041,-1.364026,-2.347831
12000,-0.900220,-1.350330,8.391677,-1.057560,-5.577766,-3.340197
16000,-0.936133,-1.371878,8.327033,-1.362904,-8.631202,-3.508136
20000,-1.060631,-1.441309,8.444349,-2.416339,-11.425095,-3.645541
24000,-1.082179,-1.522712,8.547300,-3.500308,-14.554866,-3.263861
28000,-0.984017,-1.594538,8.707711,-4.049927,-15.104485,-2.882182
32000,-0.876278,-1.551443,8.918402,-3.851454,-14.371660,-2.195159
36000,-0.735020,-1.584962,9.050082,-3.408705,-11.241889,-1.095922
40000,-0.713472,-1.640028,9.272743,-1.714049,-4.982347,0.659803
44000,-0.797269,-1.592144,9.165004,-2.477408,-5.989980,0.705604
48000,-0.689530,-1.556231,9.232041,-1.881988,-3.898377,1.606368
52000,-0.577003,-1.551443,9.193734,-0.935423,-1.531965,2.186520
56000,-0.610521,-1.539472,9.172187,0.026409,0.666508,2.430795
60000,-0.627281,-1.470040,8.846576,1.049310,1.857348,2.873543
64000,-0.617704,-1.410185,8.664616,2.713432,3.246661,3.117818
68000,-0.756568,-1.185130,8.456321,1.568394,3.322997,2.843009
72000,-0.967257,-1.213860,8.152257,2.240149,0.040554,2.339192
76000,-0.833182,-1.113304,8.116343,1.675264,2.071089,3.499497
80000,-0.711078,-1.106121,8.046912,1.843203,5.368799,3.972780
84000,-0.746991,-1.118092,7.821857,1.721066,7.613074,3.697971
88000,-0.845153,-0.960075,7.656657,0.316485,5.811547,3.392627
92000,-0.560243,-1.017536,8.111555,-1.500308,7.567272,3.591101
96000,-0.600945,-1.089362,8.492233,-3.576644,4.697043,2.476597
100000,-0.526724,-1.146823,8.851364,-3.439240,4.468035,2.033848
104000,-0.562637,-1.201889,9.026140,-1.652980,4.239028,1.789574
108000,-0.531513,-1.151611,8.892065,-0.904888,3.093989,1.499497
112000,-0.493206,-1.197101,8.889671,-0.462140,5.200860,1.896444
116000,-0.483629,-1.292869,8.746018,-0.584278,7.384066,2.400261
120000,-0.737414,-1.393425,8.621520,-1.576644,5.002387,2.064383
124000,-0.636858,-1.333570,8.746018,-0.553744,8.880248,3.178887
128000,-0.687136,-1.352724,8.592790,-1.057560,8.620707,3.453696
132000,-0.596156,-1.326388,8.590396,-1.011759,7.063455,2.934612
136000,-0.301669,-1.204283,8.583213,-0.095728,7.445135,2.339192
140000,-0.440533,-1.177947,8.698134,-0.477408,7.124524,1.728505
144000,-0.409408,-1.161188,8.695741,-0.904888,3.307730,0.278123
148000,-0.337582,-1.304840,8.765172,-1.011759,0.559638,-1.095922
152000,-0.335188,-1.237802,8.777143,-0.981224,-0.738072,-2.225693
156000,-0.430956,-1.271321,8.719683,-1.057560,-3.364026,-3.370732
160000,-0.464475,-1.304840,8.676587,-0.477408,-3.348759,-3.813480
164000,-0.656011,-1.338359,8.705317,-0.401072,-2.432728,-3.737144
168000,-0.744597,-1.371878,8.602366,-0.141530,-2.035782,-3.599739
172000,-0.871489,-1.352724,8.463503,-0.324736,-2.386927,-3.202793
176000,-0.881066,-1.407791,8.513782,-0.630080,-3.455629,-2.561571
180000,-0.854730,-1.338359,8.492233,-1.240766,-3.226621,-2.271495
184000,-0.814029,-1.309628,8.542512,-1.576644,-2.615934,-1.981419
188000,-0.823605,-1.340753,8.552089,-1.943056,-2.692270,-2.256228
192000,-0.732626,-1.302446,8.561666,-1.515576,-2.081583,-2.149358
196000,-0.766145,-1.326388,8.520964,-1.133896,-2.478530,-2.347831
200000,-0.883460,-1.331176,8.470686,-1.072828,-3.516698,-2.744777
204000,-0.945710,-1.417367,8.504205,-0.721682,-4.814407,-3.141724
208000,-1.055843,-1.379060,8.461109,-0.645346,-5.669369,-2.973785
212000,-1.089362,-1.398214,8.432379,-0.278934,-6.295323,-2.897449
216000,-1.046266,-1.414973,8.497022,0.209615,-5.822041,-2.622640
220000,-1.067814,-1.443704,8.458714,-0.401072,-4.081583,-2.408900
224000,-0.952892,-1.374272,8.578424,-0.950690,-1.760972,-1.721877
228000,-0.940921,-1.376666,8.755595,-1.683514,-0.493797,-1.309663
232000,-0.799663,-1.424550,8.913613,-1.698782,1.460402,-0.973785
236000,-0.881066,-1.414973,8.901642,-1.515576,2.376432,-0.805846
240000,-0.866701,-1.434127,8.975863,-1.698782,1.200860,-0.821113
244000,-0.857124,-1.493982,9.253590,-1.164430,-0.020514,-0.851648
248000,-0.823605,-1.465251,9.373300,-0.278934,-0.264789,-0.439434
252000,-0.790087,-1.522712,9.382876,1.018775,0.788646,-0.454701
256000,-0.763750,-1.501164,9.303867,1.873737,1.842081,-0.317297
260000,-0.893037,-1.462857,9.145850,2.362287,2.147424,-0.149358
264000,-0.919373,-1.393425,9.002198,2.789768,1.704676,0.003314
268000,-0.993594,-1.309628,8.808268,2.591295,-0.051049,0.110184
272000,-0.995988,-1.309628,8.860941,2.209615,-2.081583,0.308658
276000,-0.924162,-1.189918,8.767567,2.118012,-3.867843,0.507131
280000,-0.802058,-1.151611,8.810662,2.301218,-4.386927,0.583467
284000,-0.696713,-1.122881,8.710106,1.736333,-2.753339,0.583467
288000,-0.550666,-0.981623,8.712500,1.843203,-0.844942,0.659803
292000,-0.658405,-0.955287,8.480263,0.087478,-2.341125,0.491864
296000,-0.526724,-0.857124,8.686164,-1.042293,-2.463263,0.064383
300000,-0.644040,-0.962469,8.626308,-1.118629,-2.646469,-0.531037
304000,-0.430956,-0.893037,8.710106,0.056943,3.307730,0.339192
308000,-0.818817,-0.814029,8.485051,-1.454507,-2.585400,-1.462335
312000,-0.751779,-0.849942,8.437167,-0.828552,-4.188453,-1.844014
316000,-0.725443,-0.914585,8.657434,-1.423972,-2.280056,-1.523403
320000,-0.943315,-1.000776,8.753201,-1.607178,-4.890743,-2.958518
324000,-0.881066,-0.995988,8.810662,-0.645346,-4.371659,-2.683709
328000,-0.931344,-1.051055,8.743625,0.881371,-5.348759,-3.798213
332000,-0.914585,-1.043872,8.714894,1.812669,-5.012881,-4.195159
336000,-0.866701,-1.149217,8.688558,2.545493,-3.913644,-4.683709
340000,-0.998382,-1.127669,8.729259,2.774501,-3.791507,-5.233327
344000,-1.063026,-1.199495,8.779537,2.805035,-3.165553,-5.447067
348000,-1.125275,-1.225831,8.959103,2.835569,-2.997614,-5.477602
352000,-1.343147,-1.247379,8.827422,3.018775,-2.325858,-4.698976
356000,-1.438915,-1.278504,8.959103,3.263050,-1.165553,-3.340197
360000,-1.525106,-1.256956,8.868123,2.606562,-0.005247,-1.584472
364000,-1.498770,-1.204283,8.978256,1.736333,1.674142,0.049116
368000,-1.505953,-1.273715,9.136273,0.347020,2.590173,1.560566
372000,-1.484405,-1.185130,9.155427,-0.126262,3.750478,3.545299
376000,-1.496376,-1.180341,9.232041,-0.202598,4.620707,4.949879
380000,-1.434127,-1.137246,9.083601,-1.271301,2.315363,5.301024
384000,-1.240196,-1.101333,9.095572,-0.660614,5.887883,7.133085
388000,-1.244985,-0.955287,9.050082,-1.133896,6.239028,7.667436
392000,-1.259350,-0.876278,9.069236,-0.920156,4.452768,7.285757
396000,-1.249773,-0.720655,9.016563,-1.561377,1.109257,6.507131
400000,-1.256956,-0.670376,9.002198,-1.408705,-2.142652,6.064383
404000,-1.127669,-0.620098,9.076419,-1.515576,-4.829675,5.239955
408000,-0.952892,-0.610521,9.150639,-1.393438,-7.776239,3.957513
412000,-0.866701,-0.591368,9.200917,-0.950690,-10.173186,2.705604
416000,-0.732626,-0.603339,9.291897,-0.248400,-11.394561,1.453696
420000,-0.706290,-0.529119,9.318233,0.484424,-12.402194,0.384994
424000,-0.744597,-0.418985,9.299079,0.866104,-12.982347,-1.004319
428000,-0.632069,-0.423774,9.375694,1.690531,-9.898377,-0.989052
432000,-0.900220,-0.354342,9.215282,1.034043,-11.165553,-2.073022
436000,-1.046266,-0.215478,9.200917,0.179081,-12.768606,-1.905083
440000,-0.995988,-0.167594,9.227253,-0.889621,-11.867843,-1.324930
444000,-0.998382,-0.088585,9.042900,-1.301835,-10.066317,-0.393632
448000,-0.998382,-0.045490,9.090784,-2.004125,-7.852575,0.736139
452000,-1.110910,0.019154,9.042900,-3.408705,-9.135018,1.087284
456000,-0.840365,0.196325,9.112331,-2.614812,-1.806774,4.171253
460000,-1.168370,0.349553,9.006987,-5.133897,-4.173186,3.652169
464000,-1.113304,0.507571,8.595184,-5.790385,-3.089217,5.362093
468000,-0.835576,0.624887,8.813056,-8.477407,0.345898,6.980413
472000,-0.782904,0.701501,9.002198,-11.515575,0.742844,7.636902
476000,-0.651223,0.612916,9.236830,-13.332370,1.903150,8.522398
480000,-0.375890,0.746991,9.452309,-14.049928,4.483303,9.102551
484000,-0.330400,0.818817,9.579201,-14.523210,5.170325,8.659802
488000,-0.325611,0.826000,9.734824,-15.072827,6.315363,8.781940
492000,-0.378284,0.849942,9.742006,-15.164432,5.582539,7.957512
496000,-0.514753,0.847547,9.715671,-15.897256,3.032921,7.759039
500000,-0.694318,0.766145,9.765948,-16.034658,0.742844,7.178887
504000,-0.811634,0.761356,9.789890,-15.698781,-1.516698,7.346826
508000,-0.646434,0.672771,9.806650,-15.897256,-3.547232,7.468963
512000,-0.445322,0.629675,9.904813,-15.133897,-2.783873,7.484231
516000,-0.124498,0.632069,9.856929,-13.668248,-0.432728,7.102551
520000,-0.093374,0.663194,9.715671,-13.546111,-0.753339,6.110185
524000,0.110133,0.773327,9.701305,-12.752217,-0.325858,4.400261
528000,0.126893,0.732626,9.660604,-12.874354,-1.364026,2.614001
532000,0.033519,0.737414,9.536105,-14.065194,-8.921278,-1.218060
536000,0.292093,0.691924,9.670180,-14.004125,-9.348759,-3.309663
540000,0.179565,0.636858,9.837775,-13.668248,-11.302958,-5.782945
544000,0.102951,0.407014,9.904813,-12.507943,-10.173186,-7.447067
548000,0.126893,0.301669,10.182540,-11.332370,-5.745705,-8.546305
552000,-0.248997,0.239420,9.883265,-10.172065,-10.829675,-11.248594
556000,-0.201113,0.155623,9.641450,-9.454507,-9.837309,-11.615006
560000,-0.505177,0.169988,9.706094,-10.462141,-9.348759,-12.302030
564000,-0.507571,-0.004788,9.746795,-12.004126,-5.806774,-11.019587
568000,-0.751779,0.064643,9.737218,-12.217866,-4.417461,-10.943251
572000,-1.278504,0.177171,9.382876,-13.225499,-2.722805,-9.660809
576000,-1.350330,0.258574,9.083601,-14.126264,-0.020514,-7.462335
580000,-1.333570,0.275333,8.722076,-14.706416,6.193226,-5.019587
584000,-1.467646,0.229843,8.422802,-15.851453,11.384066,-1.889816
588000,-1.280898,0.021548,8.418014,-16.859087,17.185593,1.148352
592000,-1.036689,-0.162806,8.437167,-18.599545,21.231394,2.873543
596000,-0.984017,-0.232238,8.599973,-20.370537,22.834448,3.209421
600000,-1.053449,-0.323217,8.664616,-21.332369,20.300097,2.247589
604000,-0.916979,-0.548272,9.069236,-19.836185,20.406965,1.392627
608000,-1.110910,-0.746991,9.358934,-17.194963,16.559637,0.262856
612000,-0.976834,-0.950498,9.552865,-13.393439,11.536737,-1.660808
616000,-0.816423,-1.070208,9.476251,-11.439240,7.353531,-4.302029
620000,-0.950498,-1.254562,9.507375,-9.759851,1.017653,-8.408899
624000,-1.106121,-1.431733,9.476251,-9.744583,-8.463263,-12.027221
628000,-1.211466,-1.647211,10.012551,-8.507942,-9.119752,-13.905083
632000,-1.618480,-1.824382,10.146626,-7.194965,-14.921278,-16.347830
636000,-1.898602,-1.860295,10.237606,-4.736950,-21.806774,-18.469967
640000,-2.281674,-1.924938,10.070012,-3.317102,-28.234255,-19.782946
644000,-2.513912,-1.877054,10.113108,-2.401072,-29.883110,-18.225693
648000,-2.829947,-1.853112,10.129868,-3.149163,-34.631203,-17.416533
652000,-2.798822,-1.745373,10.101137,-5.332370,-36.646469,-14.347831
656000,-2.798822,-1.642422,10.273520,-7.714049,-37.516697,-10.912717
660000,-2.643199,-1.477222,10.302250,-10.187331,-30.875477,-5.065388
664000,-2.568978,-1.323994,10.134656,-11.775118,-24.341125,0.049116
668000,-2.501941,-1.103727,9.911995,-14.233132,-17.638836,5.926979
672000,-2.336741,-0.919373,9.787497,-17.607178,-9.425095,12.033848
676000,-2.281674,-0.677559,9.550470,-21.332369,-4.203721,17.407894
680000,-1.807622,-0.375890,9.471462,-25.240767,3.277195,22.644537
684000,-1.575385,-0.232238,9.380483,-29.500309,11.414599,26.858276
688000,-1.276109,-0.011971,9.018958,-33.912521,17.384066,30.568201
692000,-0.905008,0.146046,9.109938,-38.019390,23.750477,33.407894
696000,-0.677559,0.284910,9.325416,-40.553741,27.490936,34.430798
700000,-0.155623,0.505177,9.196129,-42.263668,27.811546,33.346825
704000,0.265756,0.766145,8.932767,-43.042294,24.819180,30.079651
708000,0.691924,0.916979,8.626308,-43.286568,19.948952,25.072018
712000,0.952892,0.972046,8.477868,-43.378170,14.193226,19.606369
716000,1.051055,0.928950,8.214506,-42.462139,6.971852,13.331558
720000,1.065420,0.957681,8.087613,-42.187332,-1.562499,6.766673
724000,1.031901,0.914585,8.137892,-43.668247,-12.509065,0.033849
728000,1.249773,0.543484,8.329428,-42.248398,-21.211355,-5.889815
732000,1.462857,0.308852,8.439561,-36.584278,-26.142653,-11.676076
736000,1.520318,0.002394,8.264784,-31.423973,-31.165552,-18.149357
740000,1.539472,-0.191536,8.298303,-27.607178,-35.730438,-24.897449
744000,1.707066,-0.454898,8.362947,-24.141529,-33.608299,-30.729509
748000,1.161188,-0.725443,8.094796,-19.912521,-38.707539,-37.218060
752000,0.780510,-0.751779,7.625533,-20.004124,-49.409828,-42.882183
756000,0.778116,-1.060631,7.886500,-19.103361,-50.280056,-46.164623
760000,0.565032,-1.297657,7.797915,-19.576643,-48.890743,-47.752411
764000,0.323217,-1.505953,8.075643,-21.164431,-42.188454,-47.874546
768000,-0.323217,-1.613692,8.018182,-25.118628,-44.142651,-48.225693
772000,-0.517148,-1.697489,7.984663,-28.859085,-39.486164,-45.630272
776000,-0.778116,-1.855506,8.329428,-33.607178,-29.883110,-41.080654
780000,-1.249773,-2.018312,8.619126,-38.263668,-20.554867,-35.080654
784000,-1.604115,-2.240973,8.923190,-41.500309,-12.906011,-28.088287
788000,-1.795651,-2.279280,9.042900,-43.973591,-6.005247,-21.416533
792000,-1.872266,-2.317587,9.021352,-46.004124,1.445134,-13.813480
796000,-1.917756,-2.375048,9.267955,-47.744583,7.674142,-6.500503
800000,-1.733402,-2.449268,9.428367,-48.721684,13.658875,0.384994
804000,-1.393425,-2.638410,9.550470,-48.217865,19.918417,5.667437
808000,-1.376666,-2.458845,9.502586,-47.072826,20.193226,9.026215
812000,-1.156399,-2.430115,9.311050,-45.652981,15.979485,11.072016
816000,-1.125275,-2.547431,9.198523,-43.637711,10.437500,11.942245
820000,-0.672771,-2.729390,9.203311,-41.042294,11.918416,14.094917
824000,-0.457293,-2.834735,9.188946,-37.897255,15.796280,16.094917
828000,-0.617704,-2.841918,9.117120,-35.546108,11.490935,16.262857
832000,-0.737414,-2.942474,8.676587,-32.324734,-1.638835,14.537665
836000,-0.234632,-3.007117,8.851364,-23.485041,-2.890743,15.133085
840000,-0.009577,-2.937685,9.162610,-16.950689,-10.799141,13.087283
844000,0.452504,-2.923320,8.808268,-9.714049,-11.944179,14.308658
848000,0.895431,-2.782062,8.856153,-5.881988,-10.524332,13.026215
852000,1.046266,-2.679112,8.341399,-3.637713,-6.218987,13.209421
856000,1.146823,-2.686294,8.049306,-1.775118,0.468035,14.094917
860000,0.902614,-2.748544,8.015787,0.224882,5.948951,15.728505
864000,0.588974,-2.908955,7.520187,1.919539,4.651241,16.583467
868000,0.644040,-2.990358,7.132327,3.385188,3.781013,18.125452
872000,0.682347,-2.961627,6.806715,1.782134,0.849715,18.949881
876000,0.890643,-2.834735,6.035782,-1.256034,-3.470896,19.484230
880000,1.493982,-2.880225,5.583278,-4.569011,5.048188,21.636902
884000,1.941698,-2.863465,5.245696,-8.385805,16.269562,23.301025
888000,2.207454,-2.944868,5.001487,-12.691148,24.956585,23.560566
892000,2.339135,-2.956839,4.848258,-16.324736,31.490936,22.675070
896000,2.600103,-3.098097,4.496311,-18.889620,35.948952,20.232323
900000,2.671929,-3.308787,4.144363,-21.194963,37.918415,16.858276
904000,2.628834,-3.754108,3.823540,-22.172064,33.002384,11.820107
908000,2.863465,-4.043807,3.809175,-26.477407,33.017654,8.079650
912000,2.925714,-4.177882,3.969586,-29.988857,32.162693,2.949879
916000,3.102885,-4.438850,3.809175,-34.049927,31.536737,-1.828747
920000,3.320758,-4.747702,3.718195,-38.278934,30.254293,-8.103557
924000,3.330335,-5.011064,3.960010,-41.179695,32.468037,-13.050121
928000,3.581726,-5.561730,4.271256,-43.271301,34.071087,-19.034853
932000,3.648763,-5.825093,5.106832,-43.301834,37.093990,-24.408899
936000,3.658340,-6.129156,5.707777,-39.698780,34.284828,-32.164623
940000,3.931279,-6.349423,6.284780,-35.027027,37.674141,-39.416534
944000,3.758897,-6.619968,6.366182,-32.019390,40.773376,-46.546303
948000,3.543418,-6.809110,6.648698,-29.423973,42.101624,-54.653175
952000,3.201048,-6.912060,7.134721,-29.149162,49.628342,-59.309662
956000,2.940080,-7.117962,8.164227,-28.263668,56.864983,-65.798210
960000,2.482787,-7.501034,8.389283,-23.439240,54.926048,-73.034851
964000,1.912967,-7.759608,8.226477,-18.309467,59.811546,-77.813477
968000,1.271321,-7.929596,7.977480,-14.691148,68.116890,-80.653175
972000,0.447716,-8.149862,7.673417,-13.561378,74.727577,-82.698975
976000,-0.330400,-8.269572,7.383718,-13.286569,77.750481,-84.637909
980000,-1.170765,-8.520964,7.077260,-13.149163,80.376434,-86.118820
984000,-2.226608,-8.635885,6.897695,-13.332370,80.788651,-88.363098
988000,-3.177106,-8.760384,6.569689,-13.042293,78.437508,-90.897446
992000,-4.240131,-8.999804,6.605602,-12.278935,71.842087,-93.156990
996000,-5.300763,-9.071630,7.060501,-9.103362,60.498569,-95.935616
1000000,-6.421249,-9.191340,7.505822,-4.401072,43.322998,-97.691345
1004000,-7.199365,-9.337387,8.025364,2.484425,28.681776,-96.760040
1008000,-8.022970,-9.469068,8.461109,11.843203,10.239027,-95.599739
1012000,-8.655039,-9.454702,8.918402,23.064577,-7.898377,-91.508133
1016000,-9.272743,-9.552865,9.009381,33.553127,-29.211355,-85.019585
1020000,-9.734824,-9.193734,9.141062,39.369923,-46.890743,-74.760040
1024000,-9.643845,-8.983045,9.114726,43.278316,-60.310593,-60.408897
1028000,-9.059659,-8.628703,9.050082,47.629463,-66.173180,-44.439434
1032000,-8.441956,-8.128315,8.544906,49.736332,-73.211349,-28.118822
1036000,-7.242460,-7.455544,8.034941,48.637096,-74.341125,-12.592106
1040000,-5.801151,-6.952762,8.054094,45.843204,-68.615929,2.781940
1044000,-4.886566,-6.229713,7.436390,42.469158,-70.951805,15.514764
1048000,-3.473987,-5.609614,7.445967,40.026409,-61.684635,28.491865
1052000,-2.214637,-4.812346,7.156269,39.003510,-53.455627,40.507130
1056000,-0.600945,-4.350265,6.964733,37.247784,-46.203720,49.621635
1060000,0.588974,-3.830723,6.557718,35.797401,-36.325859,55.911713
1064000,1.446098,-3.354277,6.258443,32.789768,-31.196087,58.476597
1068000,2.422932,-2.760514,6.016629,28.927174,-29.486164,57.453697
1072000,3.349488,-2.255338,5.679047,26.835569,-34.951813,52.980415
1076000,4.127604,-1.958457,5.779603,23.751600,-36.738071,47.117817
1080000,4.915296,-1.750161,5.748478,25.156181,-27.669371,41.988049
1084000,4.872200,-1.335965,5.269638,27.064577,-36.875477,30.812475
1088000,5.746084,-1.000776,5.427655,28.576029,-29.425095,22.094917
1092000,5.544971,-0.778116,5.216966,30.392822,-25.867844,10.965146
1096000,5.470751,-0.555455,5.111620,33.125645,-13.822042,2.919345
1100000,4.738125,-0.435745,4.853047,33.659996,-13.486164,-6.149357
1104000,3.780444,-0.416591,4.553771,30.927174,-18.982347,-13.920350
1108000,3.234566,-0.567426,4.515464,27.522593,-20.860210,-18.592106
1112000,2.724602,-0.792481,4.656722,22.545494,-21.348759,-21.004318
1116000,2.523489,-1.053449,5.066131,17.125647,-17.241888,-21.782946
1120000,2.552219,-1.426944,5.829881,13.889005,-8.860209,-21.660807
1124000,2.667141,-1.618480,6.306327,15.125646,14.132157,-18.378365
1128000,2.296039,-1.553837,6.153099,16.728699,29.292461,-17.004318
1132000,1.584962,-1.508347,5.753267,16.316486,31.948952,-18.363098
1136000,1.177947,-1.376666,5.561730,14.698165,31.048187,-19.324930
1140000,1.091756,-1.453280,5.465962,12.667630,29.781012,-20.164623
1144000,0.914585,-1.537078,5.614403,9.797401,29.185593,-20.851646
1148000,0.787692,-1.692701,6.014235,6.957707,32.926048,-20.790579
1152000,0.442927,-1.845930,6.306327,4.301219,38.452766,-20.317295
1156000,0.028730,-1.960851,6.490681,1.476791,42.559639,-19.462334
1160000,-0.541090,-1.951274,6.627151,-2.034660,41.506203,-18.637907
1164000,-0.869095,-2.152387,6.593631,-5.943057,39.124523,-17.782946
1168000,-1.158794,-2.279280,6.914454,-6.156797,40.697041,-15.523404
1172000,-1.493982,-2.475605,7.086837,-8.095729,34.987118,-13.676076
1176000,-1.400608,-2.616863,7.462727,-9.362904,30.269562,-11.767678
1180000,-1.453280,-2.674323,7.886500,-10.706415,22.895515,-10.882182
1184000,-1.309628,-2.729390,8.224083,-11.546110,15.490935,-10.302030
1188000,-0.972046,-2.827552,8.561666,-11.347637,9.307730,-9.706610
1192000,-0.974440,-2.887407,8.789114,-11.607179,4.513837,-9.691342
1196000,-0.945710,-2.930503,8.918402,-13.194964,-6.112117,-10.286762
1200000,-0.816423,-3.035848,9.186552,-13.591912,-14.524332,-10.698977
1204000,-0.572214,-3.157952,9.526528,-12.721683,-16.646469,-9.599740
1208000,-0.275333,-3.086126,9.682152,-9.958323,-15.318225,-8.134090
1212000,0.002394,-3.004723,9.643845,-8.141530,-10.768606,-6.302029
1216000,0.277727,-2.858677,9.366117,-6.660614,-6.906011,-5.294395
1220000,0.404620,-2.827552,8.954314,-6.813286,-2.722805,-4.973785
1224000,0.519542,-2.674323,8.755595,-7.698782,1.872615,-4.790579
1228000,0.538695,-2.604892,8.523358,-9.469774,2.987119,-6.195159
1232000,0.531513,-2.583344,8.209718,-10.874354,5.765745,-7.477602
1236000,0.306458,-2.557007,8.190564,-10.798018,8.727577,-8.668442
1240000,0.021548,-2.585738,7.824251,-9.286569,10.376431,-9.981419
1244000,-0.198719,-2.597709,7.505822,-9.240767,11.261928,-10.851648
1248000,-0.416591,-2.614468,7.426814,-10.721683,11.811546,-11.279129
1252000,-0.505177,-2.681506,7.637504,-12.477408,11.857347,-10.943251
1256000,-0.545878,-2.930503,8.315063,-12.920156,12.025287,-10.179893
1260000,-0.677559,-3.021482,8.643068,-12.110995,9.567271,-11.309663
1264000,-0.605733,-3.086126,8.571242,-10.981225,6.437501,-12.149358
1268000,-0.639252,-3.026271,8.367735,-10.599545,5.765745,-12.317297
1272000,-0.924162,-2.990358,8.228871,-11.423973,3.353531,-12.714244
1276000,-0.976834,-3.007117,8.183381,-12.401073,1.674142,-12.149358
1280000,-1.027112,-2.978387,8.353370,-13.179698,1.918417,-11.385999
1284000,-1.115698,-2.918532,8.520964,-13.408706,0.742844,-10.821114
1288000,-0.933739,-2.954445,8.573636,-13.301835,-1.486163,-10.653174
1292000,-0.804452,-2.925714,8.650250,-12.675881,-3.944179,-11.447068
1296000,-0.814029,-2.942474,8.686164,-11.576645,-5.883110,-11.905083
1300000,-0.787692,-2.959233,8.647857,-10.538477,-6.875476,-12.256228
1304000,-0.658405,-3.100491,8.520964,-10.370538,-5.455629,-12.760045
1308000,-0.943315,-3.167529,8.520964,-11.118629,-10.218988,-14.592106
1312000,-0.995988,-3.234566,8.453926,-12.141530,-13.425095,-15.111190
1316000,-0.952892,-3.327940,8.652645,-13.133897,-14.753339,-15.156992
1320000,-1.098939,-3.378219,8.705317,-14.569011,-17.425095,-15.691342
1324000,-1.168370,-3.481169,8.769960,-15.698781,-18.356392,-15.019587
1328000,-1.177947,-3.605668,8.872911,-16.278934,-18.677004,-13.767678
1332000,-1.350330,-3.612850,8.777143,-17.133896,-19.058683,-11.981419
1336000,-1.261744,-3.643975,8.904037,-18.309467,-16.539598,-9.294396
1340000,-1.221043,-3.684676,9.030929,-18.889620,-13.974713,-6.760045
1344000,-1.024718,-3.801992,9.215282,-17.652979,-10.371660,-4.531037
1348000,-0.746991,-3.694253,9.241618,-15.866721,-5.196087,-2.363098
1352000,-0.658405,-3.569755,9.093178,-14.263667,-2.524331,-1.523403
1356000,-0.557849,-3.428497,8.863335,-13.103362,-1.760972,-1.844014
1360000,-0.502782,-3.402161,8.690952,-11.515575,-2.631201,-2.500503
1364000,-0.562637,-3.454833,8.453926,-9.530843,-6.585400,-4.607373
1368000,-0.591368,-3.366248,8.391677,-7.652981,-11.913645,-6.637907
1372000,-0.572214,-3.375824,8.348581,-6.324736,-17.257156,-9.141725
1376000,-0.620098,-3.459621,8.281544,-5.500309,-22.493797,-12.134090
1380000,-0.632069,-3.392584,8.307879,-4.706415,-26.631203,-14.561572
1384000,-0.811634,-3.512294,8.305486,-3.561377,-32.615936,-17.431799
1388000,-0.703895,-3.517082,8.183381,-2.446873,-33.501431,-18.775311
1392000,-0.842759,-3.485958,8.130709,-1.744583,-30.402195,-18.515770
1396000,-1.254562,-3.555390,8.085219,-3.225499,-30.096851,-17.447067
1400000,-1.240196,-3.572149,8.262390,-5.256034,-29.257156,-15.065389
1404000,-1.134852,-3.624821,8.599973,-7.118629,-27.043415,-12.454701
1408000,-1.034295,-3.564966,8.549694,-8.813286,-23.867844,-9.431801
1412000,-0.691924,-3.519476,8.528147,-10.202599,-19.089216,-6.256227
1416000,-0.445322,-3.509900,8.432379,-10.996491,-12.493797,-3.477602
1420000,-0.328006,-3.423708,8.621520,-11.057561,-5.241889,-0.698976
1424000,-0.181959,-3.344700,8.592790,-10.614813,2.849715,1.346826
1428000,-0.179565,-3.303998,8.688558,-9.683515,8.727577,2.720871
1432000,-0.215478,-3.308787,8.973468,-8.202599,12.773378,3.545299
1436000,-0.177171,-3.337517,9.136273,-6.492675,16.284828,4.064383
1440000,-0.237026,-3.280056,9.035717,-3.607178,15.933683,3.346826
1444000,-0.296881,-3.373430,8.877700,-1.729316,16.910784,2.827742
1448000,-0.399832,-3.375824,8.947132,1.217249,13.750478,0.720871
1452000,-0.359130,-3.552995,8.966286,5.369921,11.536737,-0.836380
1456000,-0.512359,-3.536236,8.743625,8.148546,6.788646,-3.477602
1460000,-0.665588,-3.529053,8.626308,9.583661,-0.722805,-5.828747
1464000,-0.751779,-3.495534,8.580819,10.682898,-7.486163,-8.103557
1468000,-0.811634,-3.560178,8.449138,10.820302,-12.997614,-9.645541
1472000,-0.837971,-3.574543,8.413225,10.713432,-15.104485,-9.569205
1476000,-0.818817,-3.495534,8.449138,10.011142,-15.959446,-8.821114
1480000,-0.555455,-3.543418,8.240842,9.171448,-14.356393,-8.286762
1484000,-0.627281,-3.344700,8.192958,7.461524,-11.226622,-7.492869
1488000,-0.620098,-3.335123,8.037335,5.308852,-7.837308,-5.981419
1492000,-0.677559,-3.189077,7.987057,2.453890,-3.776240,-3.782945
1496000,-0.581791,-3.150769,7.821857,-1.164430,0.345898,-1.676075
1500000,-0.462081,-3.172317,7.874529,-3.561377,4.666509,-0.500503
1504000,-0.555455,-3.117251,7.900866,-6.141530,8.513836,1.148352
1508000,-0.562637,-3.136404,7.881712,-7.714049,12.376431,2.384994
1512000,-0.751779,-3.148375,7.656657,-9.958323,13.811546,3.148352
1516000,-0.670376,-3.143587,7.505822,-11.072827,12.376431,3.026215
1520000,-0.586579,-3.136404,7.855376,-12.126264,12.727577,2.384994
1524000,-0.907402,-3.402161,7.936779,-10.462141,8.101623,1.560566
1528000,-1.007959,-3.418920,7.948750,-7.729317,3.658875,1.514765
1532000,-0.948104,-3.471592,7.920019,-6.324736,0.987119,0.904078
1536000,-1.031901,-3.428497,7.936779,-7.317102,-2.570133,0.614001
1540000,-1.096544,-3.514688,8.195353,-8.080462,-4.280056,1.468963
1544000,-1.122881,-3.567361,8.403648,-7.790385,-7.791507,2.064383
1548000,-1.003170,-3.636792,8.611943,-6.523210,-10.509065,3.087284
1552000,-0.696713,-3.603274,8.858546,-5.378171,-8.447996,4.904078
1556000,-0.495600,-3.572149,8.956709,-4.721683,-8.600668,5.865910
1560000,-0.141258,-3.543418,8.987833,-4.004126,-8.081583,6.537665
1564000,-0.038307,-3.517082,8.985439,-2.843820,-5.898377,7.163620
1568000,0.086191,-3.435679,9.212888,-1.530843,-0.890743,8.369726
1572000,0.169988,-3.368642,9.224859,-0.004125,4.681776,9.423162
1576000,0.237026,-3.378219,9.071630,1.247783,8.834447,10.033848
1580000,0.136469,-3.282450,8.880095,2.774501,10.956584,10.583467
1584000,0.114922,-3.222595,8.671799,3.659997,12.635974,10.552932
1588000,0.129287,-3.236961,8.477868,4.408089,13.124523,10.507131
1592000,0.124498,-3.160346,8.391677,3.934806,12.040554,9.560566
1596000,0.117316,-3.124433,8.372523,3.507325,10.788646,8.293390
1600000,0.160412,-3.023877,8.214506,3.156180,9.842080,7.545299
1604000,0.198719,-3.002329,8.068460,3.156180,9.368798,6.430795
1608000,0.148441,-3.014300,7.730877,3.201982,8.529103,4.720871
1612000,-0.055067,-3.040636,7.422025,3.629463,6.819180,2.629268
1616000,-0.234632,-2.870648,7.180211,3.583661,5.002387,0.766673
1620000,-0.411803,-2.837129,6.916849,1.736333,3.887883,-0.271495
1624000,-0.622492,-3.011906,7.113173,-0.950690,2.406966,-1.385999
1628000,-0.746991,-3.074155,7.204153,-3.240766,0.483302,-1.920350
1632000,-0.912191,-3.126827,7.457938,-5.194965,-1.745705,-1.492869
1636000,-0.895431,-3.287239,7.852982,-5.744583,-3.928911,-0.317297
1640000,-0.809240,-3.497929,8.532935,-3.469774,-5.455629,1.377360
1644000,-0.691924,-3.545813,9.088389,-0.110996,-5.348759,2.980413
1648000,-0.428562,-3.557784,9.519346,3.217249,-2.280056,4.904078
1652000,-0.172383,-3.588908,9.552865,5.354653,2.666508,7.392627
1656000,0.033519,-3.543418,9.591172,6.438623,14.361164,11.010947
1660000,-0.131681,-3.493140,9.397242,6.759233,12.666508,10.797207
1664000,0.169988,-3.265691,9.033323,6.621829,16.834448,12.323924
1668000,0.450110,-3.292027,9.006987,6.850837,19.918417,12.354459
1672000,0.677559,-3.210624,8.834604,6.606562,21.796280,11.835375
1676000,0.912191,-3.114856,8.573636,7.049310,24.406965,10.583467
1680000,0.857124,-3.064578,8.418014,6.255417,23.063456,7.789574
1684000,0.684742,-3.052607,8.516175,5.659997,19.781012,4.537665
1688000,0.715866,-3.088520,8.382100,5.843203,17.231394,1.316291
1692000,0.543484,-3.095703,8.250419,5.751600,14.834447,-1.370732
1696000,0.222661,-3.052607,8.078036,5.369921,12.422234,-3.553938
1700000,-0.033519,-3.047819,7.905654,5.034043,10.788646,-5.706609
1704000,-0.253785,-3.033453,7.723695,4.789768,9.857347,-7.187525
1708000,-0.550666,-2.997540,7.759608,5.446257,8.361164,-8.393633
1712000,-0.881066,-2.928109,7.438785,6.591295,5.261929,-8.882182
1716000,-1.144428,-2.918532,6.993463,7.476791,1.139791,-9.813480
1720000,-1.379060,-2.808398,6.579266,7.339386,-3.272423,-10.317297
1724000,-1.510741,-2.849100,6.354211,6.041677,-7.257155,-10.225694
1728000,-1.716643,-2.899378,6.011840,3.583661,-11.104485,-9.324930
1732000,-1.829170,-2.858677,6.009446,0.270684,-16.203720,-8.363098
1736000,-1.927332,-2.918532,6.485892,-4.202599,-22.203720,-6.698976
1740000,-1.563414,-3.004723,6.931214,-8.584278,-27.531965,-5.065388
1744000,-1.216254,-3.081338,7.448361,-12.172065,-33.745705,-4.011953
1748000,-0.442927,-3.246537,8.224083,-12.446874,-28.264790,-1.935617
1752000,-0.239420,-3.306392,8.643068,-12.507943,-25.180820,-1.263861
1756000,-0.088585,-3.284845,8.719683,-12.172065,-24.860210,-1.462335
1760000,0.079009,-3.359065,8.963891,-11.759851,-24.402195,-2.240961
1764000,0.167594,-3.392584,9.208099,-11.332370,-23.959446,-2.393632
1768000,0.134075,-3.502717,9.433155,-10.431606,-21.379293,-1.584472
1772000,0.253785,-3.586514,9.677363,-8.874354,-17.547232,-0.576838
1776000,0.354342,-3.739743,9.950302,-5.393438,-12.402194,0.888810
1780000,0.505177,-3.754108,9.866506,-1.225499,-6.264789,1.804841
1784000,0.507571,-3.581726,9.516952,1.354653,-0.417461,2.079650
1788000,0.550666,-3.512294,9.148245,2.362287,3.536737,1.881177
1792000,0.418985,-3.392584,8.872911,2.377554,5.185593,0.934612
1796000,0.296881,-3.320758,8.599973,2.499691,5.261929,-0.042487
1800000,0.019154,-3.378219,8.377312,2.805035,3.719944,-1.355464
1804000,-0.263362,-3.294421,8.250419,3.675264,0.635974,-2.500503
1808000,-0.339977,-3.363853,8.288726,4.743967,-2.554866,-3.187526
1812000,-0.550666,-3.337517,8.188169,6.285951,-5.226621,-4.179892
1816000,-0.660800,-3.320758,7.920019,6.896638,-7.913644,-4.790579
1820000,-0.780510,-3.222595,7.754819,6.743966,-10.432729,-4.805846
1824000,-0.976834,-3.198653,7.673417,5.125646,-12.722805,-4.668441
1828000,-1.012747,-3.189077,7.785944,3.446256,-13.654102,-3.630274
1832000,-1.206678,-3.100491,7.800309,1.385188,-18.188454,-3.233327
1836000,-1.027112,-3.038242,7.862558,-0.126262,-18.356392,-1.752411
1840000,-0.785298,-3.043030,7.927202,-0.889621,-16.371660,-0.011953
1844000,-0.387861,-3.196259,8.200141,0.056943,-7.608301,2.675070
1848000,-0.854730,-2.964022,7.915231,-2.721682,-17.135019,0.720871
1852000,-0.347159,-3.112462,7.900866,-3.347636,-15.348759,1.255223
1856000,-0.311246,-3.150769,8.164227,-4.034659,-12.554866,2.125452
1860000,-0.383072,-3.088520,8.140285,-4.599545,-12.631202,2.919345
1864000,-0.177171,-3.174711,8.542512,-4.492675,-10.692270,4.400261
1868000,-0.019154,-3.179500,8.865729,-4.019392,-8.157919,5.881177
1872000,0.531513,-3.181894,8.798691,-1.362904,-1.379293,7.072017
1876000,0.770933,-3.004723,8.497022,0.545493,4.895516,6.766673
1880000,0.718261,-2.925714,7.958326,1.385188,7.597806,5.591101
1884000,0.677559,-2.750938,7.445967,1.476791,9.200859,4.186521
1888000,0.411803,-2.717419,7.225701,0.377554,9.017653,3.056749
1892000,0.248997,-2.624045,7.316680,-0.950690,6.437501,1.911711
1896000,0.177171,-2.693477,7.345411,-1.866720,4.437501,0.980413
1900000,0.263362,-2.743755,7.599196,-1.805652,2.437501,0.110184
1904000,0.308852,-2.820370,7.874529,-1.652980,1.490936,-0.744777
1908000,0.407014,-2.873042,7.860164,-1.179698,1.216127,-1.431800
1912000,0.335188,-2.932897,7.931990,-1.347636,1.032921,-2.347831
1916000,0.059855,-2.985569,7.994239,-2.202598,-2.463263,-3.553938
1920000,0.095768,-3.009511,8.070854,-3.256034,-1.104484,-3.691342
1924000,-0.062249,-3.069367,8.341399,-4.156797,-0.753339,-3.859281
1928000,-0.253785,-3.186682,8.312668,-4.950690,0.712310,-2.851648
1932000,-0.325611,-3.268085,8.506598,-3.927789,2.559638,-1.706609
1936000,-0.122104,-3.277662,8.458714,-3.820919,7.750478,-0.164625
1940000,-0.129287,-3.292027,8.293514,-4.446874,10.452767,0.476597
1944000,-0.316035,-3.253720,8.063671,-5.561378,6.987119,-0.118823
1948000,-0.114922,-3.354277,8.307879,-4.675881,12.910783,0.888810
1952000,-0.383072,-3.311181,8.255207,-4.660614,11.445134,-0.011953
1956000,-0.428562,-3.385401,8.202535,-3.759850,9.628340,-0.485235
1960000,-0.541090,-3.462016,8.214506,-0.904888,11.261928,0.094917
1964000,-0.976834,-3.428497,7.924808,1.217249,9.689409,0.201787
1968000,-0.936133,-3.423708,7.678205,2.805035,10.895515,1.575833
1972000,-0.928950,-3.371036,7.393295,3.156180,11.109256,2.644536
1976000,-1.022324,-3.308787,7.225701,2.056943,9.704676,3.301024
1980000,-0.921768,-3.301604,7.084443,0.728699,5.139791,2.965146
1984000,-0.739808,-3.169923,7.134721,-0.813286,1.445134,2.858276
1988000,-0.691924,-3.210624,7.527370,-1.652980,-2.814408,2.507131
1992000,-0.663194,-3.220201,7.989451,-0.920156,-8.142652,2.614001
1996000,-0.428562,-3.275268,8.350976,0.514959,-10.951813,3.224688
