time_us,ax,ay,az,gx,gy,gz
0,-0.505177,-0.663194,8.798691,-1.820919,-3.257156,3.865910
4000,-0.457293,-0.684742,8.829816,-1.576644,-3.409827,3.209421
8000,-0.536301,-0.694318,8.753201,-1.347636,-3.928911,2.430795
12000,-0.500388,-0.727837,8.659827,-1.027026,-3.837308,1.896444
16000,-0.557849,-0.624887,8.568848,-1.164430,-3.791507,1.575833
20000,-0.555455,-0.737414,8.554482,-1.683514,-3.638835,1.484230
24000,-0.545878,-0.689530,8.374918,-2.156797,-3.180820,1.209421
28000,-0.569820,-0.826000,8.564059,-2.217866,-3.150285,1.117818
32000,-0.517148,-0.849942,8.523358,-2.492675,-3.257156,1.056749
36000,-0.658405,-0.857124,8.810662,-2.660614,-3.959446,1.087284
40000,-0.591368,-0.936133,8.765172,-2.798018,-3.760972,0.995681
44000,-0.512359,-1.010353,8.827422,-2.523209,-2.509064,1.087284
48000,-0.416591,-1.106121,8.858546,-2.614812,-1.486163,1.270490
52000,-0.423774,-1.113304,8.968679,-2.278934,-0.173186,1.178887
56000,-0.438139,-1.007959,8.959103,-1.973591,0.864982,0.934612
60000,-0.426168,-0.991199,8.990228,-1.652980,1.261928,0.476597
64000,-0.442927,-1.048660,8.975863,-1.149163,1.842081,-0.057755
68000,-0.476446,-0.940921,8.925584,-1.027026,1.872615,-0.424167
72000,-0.545878,-0.931344,8.848969,-0.859087,1.872615,-0.882182
76000,-0.610521,-0.948104,8.705317,-0.752217,1.933684,-1.340197
80000,-0.739808,-0.895431,8.736442,-1.271301,2.162692,-1.584472
84000,-0.701501,-0.864307,8.781932,-1.439240,2.422234,-2.347831
88000,-0.701501,-0.837971,8.714894,-1.347636,3.445134,-2.866915
92000,-0.818817,-0.809240,8.743625,-1.408705,3.277195,-3.279129
96000,-0.804452,-0.847547,8.829816,-0.981224,2.819180,-3.905083
100000,-0.881066,-0.873884,8.784326,-0.660614,2.040554,-4.302029
104000,-1.005565,-0.852336,8.719683,-0.385804,1.353531,-4.515770
108000,-1.046266,-0.888249,8.834604,-0.004125,0.376432,-4.729510
112000,-1.029507,-0.948104,8.923190,0.591295,0.071089,-4.775311
116000,-1.151611,-0.972046,8.925584,1.034043,0.330631,-4.302029
120000,-1.252167,-0.976834,8.815451,1.263050,0.376432,-4.088289
124000,-1.285686,-0.998382,8.868123,1.140913,0.010020,-3.218060
128000,-1.412579,-1.086968,8.848969,1.110379,-0.585400,-2.637907
132000,-1.549049,-1.060631,8.791509,1.003508,-2.264789,-1.706609
136000,-1.532289,-0.993594,8.801085,0.774501,-3.455629,-0.714243
140000,-1.553837,-0.969652,8.719683,0.301218,-4.203721,0.507131
144000,-1.395820,-0.938527,8.736442,0.026409,-4.829675,1.423162
148000,-1.271321,-0.881066,8.686164,0.148546,-4.646469,2.354459
152000,-1.067814,-0.905008,8.662222,0.591295,-3.989980,2.934612
156000,-0.950498,-0.857124,8.544906,0.728699,-2.982346,3.239955
160000,-0.933739,-0.689530,8.441956,-0.034660,-1.913644,3.056749
164000,-0.835576,-0.600945,8.389283,-0.691148,-0.860209,3.285757
168000,-0.809240,-0.579397,8.322245,-1.133896,-0.234255,2.843009
172000,-0.773327,-0.392649,8.192958,-0.935423,-0.066316,2.247589
176000,-0.869095,-0.373495,8.135497,-1.179698,-1.012881,1.423162
180000,-0.916979,-0.342371,8.180987,-1.362904,-3.196087,0.415528
184000,-1.010353,-0.392649,8.190564,-1.973591,-5.745705,-0.363098
188000,-1.058237,-0.490811,8.360553,-2.172064,-7.730438,-0.698976
192000,-1.065420,-0.512359,8.365341,-2.538476,-8.890744,-0.760045
196000,-1.079785,-0.502782,8.394072,-2.996492,-9.379293,-0.088289
200000,-1.034295,-0.438139,8.626308,-3.607178,-8.783874,0.079650
204000,-0.928950,-0.445322,8.743625,-4.095729,-8.142652,0.552933
208000,-0.938527,-0.466869,9.093178,-3.530843,-7.409827,0.262856
212000,-0.864307,-0.474052,9.081207,-2.920156,-7.119751,0.125452
216000,-0.893037,-0.438139,9.133880,-2.782751,-7.241889,0.308658
220000,-0.888249,-0.514753,9.038112,-2.752217,-6.692270,-0.073022
224000,-0.806846,-0.531513,9.004593,-2.538476,-6.127385,-0.134090
228000,-0.694318,-0.466869,9.179369,-2.584278,-6.096850,-1.095922
232000,-0.591368,-0.533907,9.294291,-1.286568,-0.646469,-0.943251
236000,-1.036689,-0.495600,8.954314,-2.263667,-6.402194,-3.065388
240000,-0.878672,-0.617704,9.016563,-1.149163,-5.608301,-2.805846
244000,-1.194707,-0.667982,9.313444,-0.584278,-6.677003,-3.065388
248000,-1.319205,-0.711078,9.318233,-0.630080,-10.783874,-3.355464
252000,-1.441309,-0.792481,9.437943,-0.172064,-11.425095,-2.958518
256000,-1.450886,-0.782904,9.332599,0.041676,-11.440362,-2.134090
260000,-1.443704,-0.802058,9.296685,0.698165,-10.432729,-0.821113
264000,-1.460463,-0.672771,9.232041,0.896638,-9.867843,0.278123
268000,-1.376666,-0.593762,9.232041,1.247783,-10.203721,1.407894
272000,-1.266533,-0.500388,9.255983,1.430989,-10.249522,2.064383
276000,-1.010353,-0.452504,9.375694,1.797401,-5.379293,3.682703
280000,-1.213860,-0.433351,9.320627,1.201982,-5.165553,3.911711
284000,-1.422156,-0.328006,8.961497,0.652363,-13.684637,2.858276
288000,-0.814029,-0.299275,9.267955,-0.202598,-10.539598,4.384994
292000,-0.718261,-0.131681,9.378088,-0.172064,-7.974713,4.934612
296000,-0.641646,-0.110133,9.464279,0.179081,-7.043415,5.514765
300000,-0.514753,0.086191,9.418790,0.530226,-7.150285,5.224689
304000,-0.332794,0.196325,9.411607,0.560760,-6.615934,4.827742
308000,-0.325611,0.294487,9.404425,0.881371,-5.974713,4.568200
312000,-0.289698,0.323217,9.222465,0.453890,-6.463263,4.064383
316000,-0.158017,0.373495,9.181764,0.530226,-5.470896,3.621635
320000,-0.117316,0.438139,9.126697,0.759233,-3.699904,3.239955
324000,-0.148441,0.466869,9.002198,1.034043,-2.890743,2.537665
328000,-0.043096,0.476446,8.880095,0.957707,-2.127385,1.621635
332000,-0.028730,0.440533,8.846576,0.927172,0.101623,0.980413
336000,0.033519,0.430956,8.978256,0.270684,0.864982,-0.332564
340000,-0.181959,0.469264,8.834604,-0.431606,-0.447995,-1.615006
344000,-0.165200,0.421380,8.920795,-0.904888,2.147424,-1.416533
348000,-0.253785,0.304064,8.942344,-0.721682,3.368799,-1.935617
352000,-0.440533,0.299275,8.741230,-1.088094,3.292463,-2.271495
356000,-0.457293,0.306458,8.588001,-1.485041,3.414600,-2.378365
360000,-0.634463,0.217872,8.698134,-2.110996,2.223760,-2.943251
364000,-0.794875,0.179565,9.018958,-2.034660,1.445134,-2.989052
368000,-0.893037,0.131681,9.220071,-0.569010,-2.096850,-3.813480
372000,-0.960075,0.031125,9.349358,0.270684,-3.425095,-3.782945
376000,-0.957681,0.031125,9.342175,0.484424,-4.402194,-3.385999
380000,-1.158794,0.069432,9.306262,0.850837,-4.844942,-2.897449
384000,-1.142034,0.079009,9.186552,1.217249,-3.364026,-1.782945
388000,-1.120486,0.158017,8.966286,0.667630,-1.547232,-0.164625
392000,-1.110910,0.304064,8.801085,0.163814,-0.386927,1.148352
396000,-0.924162,0.490811,8.645462,-0.874354,0.391699,2.140719
400000,-0.675165,0.612916,8.645462,-1.515576,2.071089,2.537665
404000,-0.579397,0.620098,8.607155,-2.202598,2.055821,2.675070
408000,-0.450110,0.703895,8.434772,-3.057560,2.559638,2.171253
412000,-0.418985,0.727837,8.451532,-3.866720,1.979486,1.697971
416000,-0.304064,0.811634,8.362947,-4.248401,1.155058,1.346826
420000,-0.217872,0.914585,8.518570,-4.813286,0.620707,0.659803
424000,-0.014365,0.936133,8.631097,-4.614813,1.445134,-0.057755
428000,0.095768,1.000776,8.638280,-4.172065,2.559638,-1.401266
432000,0.076614,0.976834,8.525752,-3.912522,1.979486,-3.202793
436000,0.045490,0.842759,8.413225,-3.500308,1.292463,-4.683709
440000,-0.038307,0.744597,8.255207,-3.881988,0.269562,-6.653174
444000,-0.174777,0.773327,8.003817,-4.721683,-1.379293,-8.363098
448000,-0.414197,0.682347,7.860164,-6.385805,-3.730438,-9.538671
452000,-0.502782,0.605733,8.123527,-8.095729,-7.425095,-11.721877
456000,-0.538695,0.502782,8.240842,-9.194965,-9.577766,-12.805846
460000,-0.505177,0.275333,8.336611,-9.301835,-11.135018,-14.363098
464000,-0.514753,0.114922,8.410830,-9.775118,-12.280057,-15.996686
468000,-0.660800,-0.112527,8.475474,-10.431606,-14.982347,-17.523403
472000,-0.881066,-0.366313,8.458714,-10.721683,-17.547232,-18.729509
476000,-1.031901,-0.565032,8.573636,-10.691149,-19.730438,-19.294395
480000,-1.185130,-0.732626,8.877700,-10.462141,-20.615934,-18.653173
484000,-1.278504,-0.931344,9.124303,-10.752217,-20.280056,-17.569204
488000,-1.130063,-1.051055,9.284714,-9.943057,-16.356392,-15.447068
492000,-1.146823,-1.106121,9.351752,-10.294202,-14.112118,-14.317297
496000,-1.177947,-1.082179,9.167398,-10.385805,-13.150286,-12.775312
500000,-1.211466,-1.122881,9.227253,-10.309469,-13.516698,-11.141725
504000,-0.957681,-1.091756,9.404425,-11.927790,-10.570133,-8.897449
508000,-0.888249,-1.139640,9.682152,-11.210233,-6.035781,-6.424167
512000,-0.756568,-1.022324,9.643845,-10.523210,-4.906011,-4.912716
516000,-0.488417,-0.969652,9.639056,-10.507942,0.040554,-3.233327
520000,-0.337582,-0.950498,9.574412,-10.584278,3.750478,-2.424167
524000,-0.196325,-0.979228,9.495404,-9.591911,7.689410,-1.889816
528000,-0.208296,-0.931344,9.165004,-7.729317,8.956584,-2.469968
532000,-0.339977,-0.876278,8.904037,-6.294202,6.468035,-3.752411
536000,-0.335188,-0.835576,8.784326,-4.798018,2.208493,-4.836380
540000,-0.320823,-0.871489,8.918402,-3.866720,-3.379293,-6.668441
544000,-0.059855,-0.909797,9.129091,-0.782751,-4.677003,-7.767678
548000,0.016759,-0.955287,9.054871,2.560760,-6.722805,-9.416533
552000,0.009577,-0.991199,8.813056,4.576027,-10.203721,-11.248594
556000,0.119710,-1.055843,8.487445,5.644730,-13.562500,-13.340198
560000,0.059855,-1.154005,8.429984,6.514959,-15.516698,-15.462335
564000,-0.146046,-1.230620,8.343793,6.408089,-17.898378,-16.775311
568000,-0.380678,-1.338359,8.264784,5.904272,-20.112118,-17.615005
572000,-0.490811,-1.493982,8.300697,5.125646,-20.631203,-17.691341
576000,-0.763750,-1.733402,8.418014,4.606562,-19.959446,-16.882181
580000,-1.055843,-1.857901,8.434772,3.492058,-19.684637,-16.011953
584000,-1.338359,-1.970428,8.331821,1.812669,-18.096851,-13.080656
588000,-1.582567,-2.070984,8.372523,-0.492675,-15.883110,-10.134090
592000,-1.747767,-2.138022,8.429984,-2.553744,-15.623569,-6.592105
596000,-1.563414,-2.164358,8.676587,-4.523210,-12.890744,-2.378365
600000,-1.283292,-2.118869,9.071630,-4.614813,-6.722805,1.453696
604000,-1.218649,-2.118869,9.109938,-4.477407,-2.035782,4.675070
608000,-0.897826,-1.968034,9.200917,-4.294202,2.437501,6.949879
612000,-0.543484,-1.869871,9.196129,-4.004126,7.628340,8.110184
616000,-0.203507,-1.606509,9.074024,-4.248401,10.697042,7.820108
620000,-0.035913,-1.431733,8.916007,-3.637713,12.941318,7.255223
624000,0.069432,-1.235408,8.808268,-2.981224,14.177958,5.713238
628000,0.016759,-1.110910,8.631097,-1.103362,13.567271,4.140719
632000,-0.067038,-0.912191,8.757990,0.423356,7.460402,1.514765
636000,0.090980,-0.809240,8.590396,2.392821,2.116890,-1.218060
640000,0.062249,-0.696713,8.547300,3.537859,1.460402,-3.279129
644000,-0.095768,-0.730232,8.458714,4.392821,-1.425095,-5.187525
648000,-0.232238,-0.656011,8.224083,5.079844,-5.455629,-6.332563
652000,-0.148441,-0.723049,8.106767,5.156180,-7.745705,-7.111189
656000,-0.203507,-0.794875,7.893683,4.637096,-11.135018,-7.844014
660000,-0.146046,-0.821211,7.805098,3.965340,-13.516698,-8.363098
664000,-0.141258,-0.962469,7.582437,1.721066,-16.310591,-8.485235
668000,-0.146046,-1.058237,7.611167,0.331753,-15.867843,-8.057755
672000,-0.225055,-1.108515,7.706935,-0.920156,-14.997614,-7.233327
676000,-0.447716,-1.182736,7.699753,-3.057560,-13.470897,-5.721877
680000,-0.615310,-1.278504,7.704541,-5.775118,-11.715171,-3.233327
684000,-0.778116,-1.304840,7.690176,-8.904889,-8.814408,-0.240961
688000,-0.948104,-1.194707,7.802703,-12.172065,-6.844942,3.209421
692000,-1.122881,-1.221043,8.008605,-15.881988,-5.394560,6.812475
696000,-1.211466,-1.345541,8.303091,-18.126263,-4.386927,10.507131
700000,-1.194707,-1.388637,8.604761,-19.286568,-2.249522,13.881176
704000,-1.283292,-1.381454,8.755595,-19.439240,-0.005247,17.209421
708000,-1.338359,-1.347936,8.657434,-18.706415,-0.020514,19.926979
712000,-1.482011,-1.359907,8.822633,-17.561377,-2.096850,21.575834
716000,-1.386243,-1.247379,8.971074,-15.423972,-4.677003,22.888811
720000,-1.108515,-1.151611,8.983045,-12.950690,-7.944179,23.545300
724000,-0.773327,-1.096544,8.932767,-10.110995,-11.989981,23.117819
728000,-0.375890,-0.960075,8.738836,-6.584278,-15.913645,21.514765
732000,0.014365,-0.746991,8.494628,-3.576644,-19.486164,18.522398
736000,0.323217,-0.538695,8.085219,-2.370538,-23.394560,14.736138
740000,0.588974,-0.411803,7.855376,-1.790385,-26.951813,10.751406
744000,0.890643,-0.428562,7.814674,-0.660614,-27.211355,6.659803
748000,0.945710,-0.361524,7.611167,-2.370538,-28.768606,2.323925
752000,1.137246,-0.430956,7.350199,-2.034660,-29.669371,-1.889816
756000,1.369483,-0.426168,7.307104,-3.149163,-25.898378,-4.851647
760000,1.362301,-0.304064,7.323863,-5.500309,-24.783875,-7.828747
764000,1.448492,-0.435745,7.393295,-7.851454,-22.356392,-9.660809
768000,1.376666,-0.521936,7.515399,-10.553743,-19.135019,-11.385999
772000,1.328782,-0.689530,7.620744,-13.668248,-13.745706,-12.118824
776000,1.254562,-0.826000,7.718906,-17.225498,-8.814408,-12.302030
780000,1.177947,-0.969652,7.781156,-20.340002,-2.157919,-12.134090
784000,1.163582,-1.165976,8.133103,-22.782751,5.796279,-10.882182
788000,1.048660,-1.304840,8.214506,-25.164431,14.147424,-10.561572
792000,0.706290,-1.410185,8.329428,-27.332369,17.811546,-10.607373
796000,0.033519,-1.534683,8.042124,-30.874355,8.834447,-13.263862
800000,0.117316,-1.683124,8.518570,-31.652981,14.727577,-12.271496
804000,-0.603339,-1.891419,8.671799,-32.431606,10.422234,-12.042488
808000,-0.701501,-2.149993,9.169792,-32.263668,9.292462,-10.790579
812000,-0.921768,-2.157176,9.425972,-30.904888,6.055821,-10.393633
816000,-0.871489,-2.324770,9.742006,-28.065193,3.429867,-9.767678
820000,-0.814029,-2.415750,10.254366,-24.110994,4.529104,-8.821114
824000,-0.964863,-2.461239,10.481815,-19.362904,2.788646,-8.775312
828000,-1.072602,-2.463634,10.139444,-14.187331,-0.722805,-8.531037
832000,-1.031901,-2.415750,9.792285,-10.462141,-5.822041,-8.882182
836000,-1.017536,-2.370260,9.471462,-6.859087,-10.417461,-8.973785
840000,-0.641646,-2.274492,9.030929,-4.401072,-15.058682,-9.584473
844000,-0.486023,-2.128445,8.738836,-2.630080,-17.593035,-9.645541
848000,-0.325611,-2.030283,8.331821,-2.156797,-19.364027,-9.828747
852000,-0.098162,-2.044648,8.147469,-3.317102,-19.806774,-10.210426
856000,0.021548,-1.884237,7.941567,-4.859087,-20.173187,-10.378366
860000,0.172383,-1.872266,7.910442,-7.851454,-17.562500,-9.737144
864000,0.093374,-1.719037,7.855376,-11.408706,-15.638836,-8.882182
868000,0.172383,-1.640028,7.908048,-15.439240,-12.280057,-7.202793
872000,0.277727,-1.628057,8.087613,-20.523209,-7.058682,-5.385999
876000,0.241814,-1.707066,8.202535,-25.515575,-1.730438,-3.019587
880000,0.270545,-1.747767,8.281544,-29.866718,4.697043,-0.210426
884000,0.246603,-1.829170,8.439561,-33.973591,10.559638,2.888810
888000,0.246603,-2.018312,8.839393,-36.492676,16.590172,5.636902
892000,0.380678,-2.157176,8.896853,-37.775116,22.971851,7.392627
896000,0.414197,-2.171541,8.810662,-38.217865,26.040554,8.217054
900000,0.114922,-2.334347,8.908825,-38.156796,24.758112,7.377360
904000,0.071826,-2.509123,9.186552,-36.126263,22.300097,6.262856
908000,-0.023942,-2.590526,9.323022,-31.622444,14.361164,4.491864
912000,0.014365,-2.688689,9.844957,-28.126263,7.429867,2.217055
916000,0.105345,-2.755726,9.828198,-23.958323,-2.997614,-2.027220
920000,0.474052,-2.657564,10.091560,-18.630079,-4.646469,-4.622640
924000,0.423774,-2.671929,9.876082,-14.110995,-8.829675,-7.798213
928000,0.383072,-2.681506,9.737218,-11.958323,-13.058682,-10.989053
932000,0.234632,-2.762909,9.521740,-11.515575,-16.081583,-13.141725
936000,0.114922,-2.894590,9.387665,-10.309469,-15.104485,-13.233328
940000,0.100556,-2.839523,9.121908,-9.897255,-11.150286,-12.179893
944000,0.086191,-2.928109,8.693346,-10.736950,-5.165553,-9.996686
948000,-0.031125,-2.750938,8.377312,-11.820919,-0.600667,-7.355464
952000,-0.011971,-2.722207,8.178593,-13.881988,3.781013,-4.866915
956000,0.263362,-2.511518,8.090008,-17.225498,10.391699,-2.378365
960000,0.397437,-2.573767,8.034941,-21.912521,18.239027,-0.393632
964000,0.349553,-2.559402,7.929596,-24.782751,22.223761,0.293391
968000,0.596156,-2.600103,7.922413,-28.584278,30.864981,2.049116
972000,0.548272,-2.564190,7.852982,-32.126263,36.910782,2.888810
976000,0.644040,-2.590526,7.740454,-34.752216,43.536736,2.720871
980000,0.390255,-2.559402,7.615956,-35.820919,48.239029,2.430795
984000,0.112527,-2.607286,7.469909,-37.194965,47.032921,1.133085
988000,0.076614,-2.659958,7.501034,-37.576645,46.727577,-0.286762
992000,-0.337582,-2.703054,7.094019,-37.149162,28.803913,-5.889815
996000,0.526724,-2.885013,7.527370,-34.996490,32.025288,-6.714243
1000000,0.179565,-2.942474,7.407660,-32.065193,27.567272,-10.363098
1004000,-0.258574,-3.004723,7.422025,-31.485039,16.483301,-14.943251
1008000,-0.579397,-3.210624,7.876924,-29.805653,4.697043,-18.195158
1012000,-0.830788,-3.342306,8.192958,-29.332367,-3.379293,-19.172258
1016000,-0.905008,-3.450045,8.590396,-27.042292,-7.547232,-18.729509
1020000,-0.883460,-3.454833,8.911219,-25.393438,-9.684637,-17.523403
1024000,-0.684742,-3.332729,9.255983,-24.431606,-8.295323,-15.095922
1028000,-0.447716,-3.270479,9.284714,-23.546110,-3.150285,-12.500503
1032000,-0.246603,-3.280056,9.289502,-23.561377,3.460402,-9.920350
1036000,-0.019154,-3.095703,9.311050,-23.286568,10.834447,-7.401266
1040000,0.208296,-3.028665,9.162610,-22.752216,17.155058,-6.210426
1044000,0.414197,-2.932897,8.896853,-22.355270,22.620707,-5.370731
1048000,0.402226,-2.928109,8.662222,-21.943056,26.895515,-5.248594
1052000,0.471658,-2.861071,8.494628,-20.736948,31.322996,-5.370731
1056000,0.462081,-2.710236,8.188169,-19.881987,34.712311,-5.905083
1060000,0.363919,-2.743755,7.915231,-21.301834,36.315365,-6.683709
1064000,0.464475,-2.849100,7.721301,-22.187330,38.177959,-8.347831
1068000,0.361524,-3.050213,7.539341,-22.248400,40.055820,-9.889816
1072000,-0.007183,-2.978387,7.345411,-21.775116,38.910782,-12.240961
1076000,-0.162806,-2.932897,7.024588,-20.538475,35.093990,-15.004320
1080000,-0.375890,-2.901772,6.852205,-20.019392,29.903149,-17.630274
1084000,-0.864307,-3.095703,6.746861,-19.393438,23.704676,-19.660807
1088000,-1.041478,-3.323152,6.720524,-18.248400,14.941318,-21.645540
1092000,-1.185130,-3.236961,6.890512,-17.271299,6.773379,-23.218060
1096000,-1.218649,-3.390190,7.170634,-16.385803,-2.051049,-25.050119
1100000,-1.194707,-3.541024,7.735666,-14.095729,-10.615934,-26.592106
1104000,-1.177947,-3.737349,8.362947,-9.927790,-16.860210,-27.248594
1108000,-1.003170,-3.816358,8.743625,-4.920156,-22.280056,-27.294395
1112000,-0.919373,-4.034230,9.050082,-0.004125,-24.631203,-26.866915
1116000,-0.792481,-3.926491,9.057265,3.553127,-25.470896,-25.859282
1120000,-0.622492,-3.746926,9.090784,5.430989,-24.127384,-25.553938
1124000,-0.442927,-3.653552,9.085996,5.537859,-20.554867,-24.042486
1128000,-0.512359,-3.734955,9.109938,4.041677,-20.707539,-23.752411
1132000,-0.246603,-3.749320,9.205706,4.301219,-18.325859,-23.706610
1136000,-0.076614,-3.665523,9.495404,4.743967,-11.623569,-22.607372
1140000,-0.174777,-3.675100,9.653421,6.102745,-7.257155,-22.515770
1144000,-0.134075,-3.734955,9.619903,7.217249,-5.302957,-23.202791
1148000,-0.213084,-3.859453,9.823410,9.522593,-2.661736,-24.134090
1152000,-0.378284,-4.029441,10.017340,13.644730,-0.738072,-25.034853
1156000,-0.462081,-4.237737,10.089166,17.919538,2.987119,-25.126455
1160000,-0.893037,-4.362236,10.096349,21.614197,3.719944,-25.477602
1164000,-1.122881,-4.376601,10.029311,23.721066,5.017653,-24.363098
1168000,-1.288081,-4.486734,9.679757,28.377556,8.361164,-21.874548
1172000,-1.357512,-4.419696,8.820239,33.644730,11.338264,-20.073021
1176000,-1.405396,-4.151546,7.546524,37.766869,11.429867,-19.599739
1180000,-1.649605,-4.010288,6.754043,39.889004,10.086355,-18.195158
1184000,-2.006341,-3.797204,6.045359,40.514961,6.025287,-17.095922
1188000,-2.425326,-3.581726,5.377377,38.362289,-5.226621,-17.172258
1192000,-2.540248,-3.485958,5.135562,35.629463,-15.989981,-15.920350
1196000,-2.537854,-3.519476,5.109226,33.675262,-24.906012,-14.088289
1200000,-2.513912,-3.665523,5.652710,32.072212,-33.638836,-11.676076
1204000,-2.497152,-3.612850,6.138733,32.056942,-38.524330,-7.340197
1208000,-2.205060,-3.617639,6.641516,33.263050,-40.967079,-2.744777
1212000,-1.635240,-3.557784,6.797139,33.095112,-40.035782,1.804841
1216000,-1.312023,-3.430891,6.698977,30.637096,-36.234257,6.064383
1220000,-0.790087,-3.162740,6.399701,26.423357,-31.333492,9.301023
1224000,-0.227449,-2.966416,6.246472,21.751600,-26.692270,11.957512
1228000,-0.011971,-2.600103,5.990293,16.621830,-34.218987,10.033848
1232000,0.845153,-2.657564,6.167464,14.347019,-22.005247,13.026215
1236000,0.833182,-2.549825,6.327875,14.072210,-18.768606,12.217054
1240000,1.007959,-2.324770,6.248867,11.263050,-18.677004,10.827742
1244000,1.271321,-2.121263,6.282385,8.652364,-20.356392,8.140718
1248000,1.431733,-2.015918,6.445191,6.621829,-22.478531,5.484231
1252000,1.630451,-1.824382,6.588843,6.087478,-18.875477,4.049116
1256000,1.558625,-1.651999,6.694188,4.316485,-20.295324,1.850642
1260000,1.769315,-1.649605,6.749255,3.797401,-24.402195,-0.729510
1264000,2.267309,-1.642422,7.129933,3.415722,-23.318224,-3.370732
1268000,2.219425,-1.793257,7.551312,3.095111,-23.959446,-6.653174
1272000,2.540248,-1.929727,7.941567,4.545493,-21.974712,-9.553938
1276000,2.726996,-1.999158,8.398860,3.690531,-19.898378,-12.973785
1280000,2.540248,-2.111686,8.736442,3.705798,-16.112118,-16.805845
1284000,2.904167,-2.169147,8.465898,1.736333,-7.425095,-20.256227
1288000,2.554613,-2.243367,8.485051,0.224882,-0.386927,-24.134090
1292000,1.972822,-2.415750,8.746018,0.041676,1.109257,-26.821114
1296000,1.549049,-2.583344,8.932767,1.095111,1.460402,-28.943251
1300000,1.122881,-2.631228,8.805874,2.347020,1.628341,-29.996685
1304000,0.749385,-2.662352,8.588001,3.522592,3.322997,-29.920349
1308000,0.366313,-2.638410,8.274361,2.530226,5.124524,-28.607372
1312000,-0.002394,-2.652776,7.931990,0.514959,8.819180,-26.210426
1316000,-0.464475,-2.655170,7.520187,-1.973591,8.666508,-23.706610
1320000,-0.806846,-2.676718,7.426814,-4.767485,5.368799,-20.805845
1324000,-0.790087,-2.705448,7.546524,-5.500309,1.964218,-18.424166
1328000,-0.873884,-2.679112,7.383718,-5.561378,-2.844942,-16.271496
1332000,-0.775721,-2.604892,7.398083,-5.744583,-7.516697,-14.454701
1336000,-0.792481,-2.518700,7.328651,-6.385805,-12.218988,-12.805846
1340000,-0.392649,-2.545036,7.465121,-6.645347,-15.409828,-11.202793
1344000,-0.074220,-2.473210,7.872135,-5.698782,-13.730438,-9.584473
1348000,-0.181959,-2.480393,8.152257,-5.958323,-12.493797,-7.798213
1352000,-0.045490,-2.351106,8.305486,-7.439240,-10.020514,-6.164625
1356000,0.117316,-2.308010,8.386889,-9.317102,-6.585400,-3.874548
1360000,0.373495,-2.310405,8.832211,-10.538477,2.956585,-0.149358
1364000,0.380678,-2.185906,8.942344,-9.378171,6.208493,0.079650
1368000,0.634463,-1.989582,8.602366,-9.607179,6.681776,0.629268
1372000,1.036689,-2.044648,8.643068,-10.034659,14.208493,1.041482
1376000,0.732626,-1.970428,8.492233,-10.172065,13.857347,0.247589
1380000,0.636858,-2.073379,8.750807,-11.485042,11.017653,-0.744777
1384000,0.560243,-2.166753,9.071630,-10.034659,5.277195,-2.531037
1388000,0.617704,-2.248155,9.452309,-8.553743,1.613073,-3.813480
1392000,0.591368,-2.343924,9.519346,-6.355270,-2.386927,-5.798213
1396000,0.517148,-2.497152,9.548077,-4.401072,-6.829675,-7.737144
1400000,0.411803,-2.537854,9.686940,-3.088094,-9.135018,-8.729510
1404000,0.119710,-2.631228,9.854534,-1.576644,-9.867843,-8.668442
1408000,0.083797,-2.643199,9.832987,-0.416339,-9.577766,-8.225694
1412000,-0.059855,-2.616863,9.732430,1.263050,-8.402194,-6.821113
1416000,-0.076614,-2.607286,9.493010,2.469157,-8.493797,-5.492869
1420000,0.105345,-2.542642,9.344569,1.553127,-3.241888,-3.080655
1424000,0.153229,-2.406173,9.033323,0.957707,-3.058682,-2.347831
1428000,0.311246,-2.339135,8.877700,-0.736950,2.452768,-0.744777
1432000,0.507571,-2.188300,8.734048,-2.309469,5.307730,-0.302029
1436000,0.512359,-2.123657,8.690952,-4.721683,6.086356,-0.393632
1440000,0.517148,-2.159570,8.755595,-4.965958,8.055821,-0.500503
1444000,0.490811,-2.185906,8.786720,-4.477407,10.254294,0.125452
1448000,0.325611,-2.195483,8.676587,-3.546110,10.849714,0.232322
1452000,0.282516,-2.255338,8.518570,-3.256034,9.445134,-0.363098
1456000,0.359130,-2.348712,8.489840,-3.210232,9.475668,-0.927984
1460000,0.138864,-2.375048,8.372523,-3.454507,10.055821,-1.202793
1464000,0.095768,-2.454057,8.461109,-3.943056,8.605439,-1.630274
1468000,0.086191,-2.442086,8.705317,-4.401072,6.559639,-2.927984
1472000,0.007183,-2.571373,8.944737,-3.362904,4.590173,-4.286762
1476000,-0.201113,-2.552219,9.004593,-1.851454,2.926050,-4.897449
1480000,-0.588974,-2.662352,9.109938,0.316485,0.391699,-4.363098
1484000,-0.555455,-2.595315,8.839393,2.316485,-0.432728,-3.447068
1488000,-0.191536,-2.607286,8.530540,3.889004,2.101623,-2.286762
1492000,-0.158017,-2.387019,8.341399,2.820302,5.307730,-1.966151
1496000,-0.141258,-2.281674,7.996634,1.125646,6.025287,-1.370732
1500000,-0.222661,-2.272097,7.917625,-0.553744,5.689409,-1.553938
1504000,-0.287304,-2.240973,8.044518,-1.943056,2.483302,-1.447067
1508000,-0.430956,-2.281674,8.288726,-3.088094,-3.669369,-1.508136
1512000,-0.162806,-2.293645,8.705317,-3.240766,-3.379293,-0.134090
1516000,0.088585,-2.456451,9.399636,-0.492675,-0.218988,0.843009
1520000,0.043096,-2.406173,9.500193,4.423356,-1.837308,0.736139
1524000,0.488417,-2.312799,9.148245,6.347020,-1.699904,0.720871
1528000,0.560243,-2.303222,8.935161,7.079844,-4.234255,-1.126457
1532000,0.713472,-2.358289,8.832211,7.400455,-6.295323,-2.439434
1536000,0.881066,-2.355895,9.210494,7.583661,-6.814407,-3.828747
1540000,0.845153,-2.360683,9.404425,7.675264,-6.646469,-5.615006
1544000,0.806846,-2.382231,9.617508,8.484425,-5.333491,-6.897449
1548000,0.672771,-2.458845,9.536105,10.347020,-3.348759,-7.981419
1552000,0.368707,-2.430115,9.390059,12.576027,-1.608301,-8.760045
1556000,0.112527,-2.530671,8.825027,14.209615,-0.539598,-9.248594
1560000,-0.112527,-2.525883,8.327033,14.942439,-0.218988,-9.156992
1564000,-0.220267,-2.427721,7.862558,14.041677,-0.234255,-8.989053
1568000,-0.378284,-2.446874,7.489063,12.087478,0.559638,-8.668442
1572000,-0.509965,-2.427721,7.424419,9.965341,0.880249,-7.584472
1576000,-0.591368,-2.245761,7.405266,6.560760,1.322997,-6.256227
1580000,-0.646434,-2.133234,7.510611,2.911905,2.590173,-4.775311
1584000,-0.512359,-2.197877,7.627927,0.423356,4.147425,-2.943251
1588000,-0.347159,-2.195483,7.520187,-0.859087,6.376432,-1.248594
1592000,-0.356736,-2.205060,7.503428,-1.759850,10.025287,0.995681
1596000,-0.191536,-2.209848,7.259220,-3.591912,11.613073,2.125452
1600000,-0.088585,-2.035071,7.096414,-6.706415,12.101623,2.446062
1604000,-0.169988,-2.018312,6.995857,-9.927790,10.269562,2.247589
1608000,-0.114922,-1.977611,7.175423,-12.446874,6.544371,1.713238
1612000,-0.088585,-2.066196,7.491457,-14.401073,2.406966,1.209421
1616000,0.244209,-2.188300,7.967903,-15.622445,-0.768606,-0.179892
1620000,0.375890,-2.281674,8.169016,-16.004124,-0.738072,-0.836380
1624000,0.234632,-2.260126,8.681376,-16.920155,-1.058682,-1.492869
1628000,0.270545,-2.456451,8.980651,-15.836186,-0.234255,-1.905083
1632000,0.138864,-2.525883,9.411607,-12.752217,0.773379,-1.324930
1636000,0.117316,-2.580950,9.464279,-8.110995,3.246661,-0.240961
1640000,0.124498,-2.600103,9.392453,-6.294202,4.055821,0.171253
1644000,-0.004788,-2.466028,9.466674,-5.210233,1.689409,-0.546304
1648000,-0.055067,-2.588132,9.423578,-3.988858,0.483302,-1.218060
1652000,-0.100556,-2.626439,9.423578,-0.645346,2.025287,-0.821113
1656000,-0.222661,-2.552219,9.105149,2.224883,0.055821,-1.416533
1660000,-0.316035,-2.537854,8.645462,3.385188,-2.051049,-2.347831
1664000,-0.416591,-2.343924,8.350976,3.385188,-4.539598,-2.622640
1668000,-0.409408,-2.377442,8.358158,3.354653,-5.531965,-2.378365
1672000,-0.521936,-2.434903,8.336611,2.896638,-6.417461,-1.905083
1676000,-0.342371,-2.389413,8.463503,3.034043,-7.180820,-1.538671
1680000,-0.296881,-2.415750,8.602366,3.339386,-6.661736,-0.989052
1684000,-0.126893,-2.379837,8.726865,3.934806,-6.005247,-0.760045
1688000,-0.004788,-2.466028,8.724471,4.423356,-1.593034,0.186520
1692000,-0.150835,-2.398990,8.611943,4.377554,-1.073950,-0.302029
1696000,-0.304064,-2.154782,8.207323,3.766867,-5.073949,-1.019587
1700000,-0.246603,-2.202666,8.322245,1.812669,-4.707537,-0.592106
1704000,-0.325611,-2.176329,8.185776,0.240150,-2.570133,1.010948
1708000,-0.169988,-2.176329,8.140285,-0.248400,2.330631,2.827742
1712000,-0.019154,-2.023100,8.049306,-2.263667,5.552005,3.911711
1716000,0.086191,-2.020706,7.905654,-4.843820,7.429867,4.339192
1720000,0.296881,-2.027889,8.003817,-6.217866,11.353531,5.010948
1724000,0.335188,-2.003947,8.145074,-7.729317,14.361164,5.346826
1728000,0.574608,-2.008735,8.142680,-8.263667,17.124523,4.843009
1732000,0.711078,-2.066196,8.233660,-8.004126,21.979485,4.446063
1736000,0.500388,-2.123657,8.034941,-7.698782,25.750477,3.713238
1740000,0.213084,-2.164358,7.742848,-7.179698,26.742844,3.514765
1744000,-0.069432,-2.154782,7.534553,-7.454507,25.597805,2.965146
1748000,-0.172383,-2.056619,7.453150,-8.965958,22.254293,2.339192
1752000,-0.308852,-2.054225,7.587225,-10.538477,18.162691,0.965146
1756000,-0.517148,-2.130840,7.615956,-10.401072,9.353531,-0.469968
1760000,-0.426168,-2.272097,7.733272,-10.843820,5.781013,-0.592106
1764000,-0.445322,-2.391808,7.965509,-8.721683,2.330631,-1.782945
1768000,-0.593762,-2.504335,8.226477,-9.439240,-4.188453,-2.561571
1772000,-0.521936,-2.509123,8.774749,-9.988858,-8.142652,-2.989052
1776000,-0.687136,-2.705448,9.315839,-8.843820,-12.677003,-3.050121
1780000,-0.454898,-2.877831,9.777920,-5.210233,-11.333492,-1.950884
1784000,-0.304064,-2.906561,10.086772,-2.477408,-7.196087,-0.225693
1788000,-0.330400,-2.825158,9.914390,-0.798018,-5.394560,0.308658
1792000,-0.126893,-2.849100,9.880871,1.354653,-3.043415,0.690337
1796000,-0.119710,-2.832341,9.636662,2.331753,0.071089,0.965146
1800000,-0.256180,-2.710236,9.464279,2.530226,2.269562,1.041482
1804000,-0.320823,-2.633622,9.260772,2.988241,1.567272,0.644536
1808000,-0.392649,-2.492364,9.021352,3.278317,2.254295,1.346826
1812000,-0.301669,-2.442086,8.825027,3.751600,5.048188,2.278123
1816000,-0.299275,-2.384625,8.432379,4.118012,6.300097,2.644536
1820000,-0.289698,-2.322376,8.231265,4.133279,6.926051,3.301024
1824000,-0.167594,-2.331953,8.142680,4.163814,5.918417,3.423162
1828000,0.079009,-2.291251,7.996634,4.072211,4.681776,3.102551
1832000,0.387861,-2.173935,8.049306,3.797401,2.803913,1.652169
1836000,0.679953,-2.106898,8.166622,2.667631,2.910783,-0.057755
1840000,0.581791,-2.188300,8.403648,2.377554,2.040554,-1.401266
1844000,0.632069,-2.343924,8.568848,2.652363,5.277195,-1.828747
1848000,0.282516,-2.226608,8.477868,0.698165,0.391699,-4.118823
1852000,0.361524,-2.279280,8.595184,-0.187331,-0.615934,-5.065388
1856000,0.368707,-2.343924,8.729259,-0.385804,0.895516,-5.599739
1860000,0.153229,-2.422932,8.623915,-0.080461,2.971852,-5.523403
1864000,0.014365,-2.379837,8.492233,-0.202598,5.292463,-5.462335
1868000,-0.067038,-2.389413,8.501810,-0.126262,8.529103,-4.683709
1872000,-0.265756,-2.379837,8.224083,1.186714,9.338264,-4.424167
1876000,-0.469264,-2.420538,8.128315,1.659997,12.681775,-3.080655
1880000,-0.737414,-2.420538,7.864953,0.469157,12.315363,-1.920350
1884000,-0.859518,-2.403779,7.910442,-0.614812,9.567271,-0.943251
1888000,-0.744597,-2.391808,7.833828,-1.271301,7.109257,-0.424167
1892000,-0.694318,-2.353500,8.006210,-0.981224,3.521470,-0.240961
1896000,-0.598550,-2.442086,7.884106,-0.843820,-0.325858,0.033849
1900000,-0.593762,-2.461239,8.066066,-1.210232,-5.043415,-0.057755
1904000,-0.608127,-2.437297,8.135497,-1.683514,-9.073950,0.354459
1908000,-0.371101,-2.576161,8.365341,-2.034660,-10.692270,1.178887
1912000,-0.311246,-2.501941,8.676587,-1.485041,-12.463263,1.697971
1916000,-0.189142,-2.535460,8.896853,-1.912522,-12.112118,2.766673
1920000,0.136469,-2.614468,9.196129,-0.843820,-9.150286,3.468963
1924000,0.105345,-2.669535,9.284714,1.263050,-8.524332,3.560566
1928000,0.438139,-2.583344,9.232041,3.369921,-4.600667,4.049116
1932000,0.361524,-2.525883,9.121908,4.041677,-2.310591,4.018581
1936000,0.253785,-2.523489,8.908825,3.797401,-2.264789,3.896444
1940000,0.244209,-2.511518,8.827422,3.079844,-1.470896,3.835375
1944000,0.313640,-2.518700,8.844181,2.392821,-0.417461,4.155986
1948000,0.464475,-2.432509,8.865729,1.568394,2.773379,4.675070
1952000,0.526724,-2.444480,8.640674,1.843203,5.704677,4.629269
1956000,0.548272,-2.346318,8.561666,1.522592,8.605439,4.720871
1960000,0.440533,-2.329558,8.343793,1.598928,10.086355,3.728505
1964000,0.375890,-2.250550,8.087613,1.522592,9.628340,3.133085
1968000,0.344765,-2.207454,7.987057,1.263050,8.651241,2.232322
1972000,0.378284,-2.114080,7.637504,0.606562,7.826814,1.056749
1976000,0.311246,-2.051831,7.570466,-0.446873,7.384066,-0.179892
1980000,0.165200,-2.075773,7.486669,-1.607178,6.406967,-0.683709
1984000,0.110133,-2.020706,7.472303,-3.011759,5.964219,-1.294396
1988000,-0.035913,-2.073379,7.637504,-4.950690,4.651241,-1.691342
1992000,-0.047884,-2.099715,7.716512,-6.141530,3.490936,-1.905083
1996000,-0.057461,-2.195483,7.975086,-6.553743,2.849715,-2.073022
