time_us,ax,ay,az,gx,gy,gz
0,-0.797269,-1.113304,8.647857,-1.347636,-1.669369,-2.073022
4000,-0.732626,-1.113304,8.662222,-1.408705,-2.554866,-2.164625
8000,-0.727837,-1.192312,8.623915,-1.790385,-2.799140,-1.569205
12000,-0.725443,-1.089362,8.542512,-2.416339,-2.677003,-1.584472
16000,-0.730232,-1.161188,8.623915,-2.889621,-2.249522,-0.912716
20000,-0.766145,-1.165976,8.868123,-3.439240,-1.837308,-0.714243
24000,-0.687136,-1.201889,8.892065,-3.958324,-1.302957,0.018581
28000,-0.713472,-1.185130,9.018958,-3.881988,-0.203721,0.476597
32000,-0.675165,-1.312023,8.997410,-2.798018,0.483302,0.934612
36000,-0.837971,-1.256956,9.002198,-1.943056,0.697043,1.728505
40000,-0.821211,-1.276109,8.925584,-2.126262,0.727577,1.896444
44000,-0.737414,-1.213860,8.911219,-2.309469,1.139791,2.308658
48000,-0.679953,-1.185130,8.870518,-2.324736,0.987119,2.232322
52000,-0.507571,-1.187524,8.951921,-1.530843,0.544371,2.018581
56000,-0.392649,-1.161188,9.153033,-0.477408,-0.035782,1.682703
60000,-0.208296,-1.106121,9.006987,0.560760,0.956585,0.522398
64000,-0.232238,-1.072602,9.069236,1.827936,1.887883,-0.088289
68000,-0.263362,-1.094150,8.913613,2.682898,2.529104,-0.622640
72000,-0.414197,-0.981623,8.836999,2.896638,2.391699,-1.447067
76000,-0.524330,-0.957681,8.698134,3.293585,1.719944,-1.767678
80000,-0.598550,-0.931344,8.564059,3.400455,0.468035,-1.920350
84000,-0.543484,-0.893037,8.497022,2.972974,-0.447995,-2.256228
88000,-0.497994,-0.919373,8.523358,2.621829,-0.921278,-2.210426
92000,-0.560243,-0.916979,8.568848,2.148547,-0.631201,-2.195159
96000,-0.488417,-0.912191,8.504205,1.934806,-0.112117,-2.149358
100000,-0.464475,-0.857124,8.348581,1.385188,0.803913,-2.240961
104000,-0.548272,-0.900220,8.358158,0.209615,1.200860,-2.515770
108000,-0.658405,-0.914585,8.494628,-0.477408,1.109257,-2.424167
112000,-0.646434,-0.950498,8.650250,-0.889621,1.093989,-2.439434
116000,-0.627281,-0.952892,8.738836,-0.660614,0.452768,-2.363098
120000,-0.703895,-1.000776,8.722076,-0.599545,-0.356392,-2.179892
124000,-0.754174,-1.106121,8.889671,-0.385804,-1.028148,-2.622640
128000,-0.641646,-1.089362,8.985439,0.423356,-1.012881,-2.271495
132000,-0.727837,-1.034295,8.927979,1.018775,-1.119751,-2.424167
136000,-0.751779,-0.986411,8.884883,1.721066,-1.409827,-2.500503
140000,-0.842759,-0.988805,8.918402,2.041676,-2.386927,-2.500503
144000,-0.924162,-1.039083,8.789114,2.545493,-3.272423,-2.469968
148000,-0.845153,-1.019930,8.839393,2.469157,-3.989980,-2.256228
152000,-0.833182,-1.039083,8.927979,2.499691,-3.883110,-1.935617
156000,-0.835576,-0.964863,8.817844,2.927173,-3.348759,-1.263861
160000,-0.766145,-0.993594,8.779537,2.652363,-2.814408,-1.065388
164000,-0.691924,-0.972046,8.667010,2.545493,-2.020514,-1.111190
168000,-0.605733,-0.888249,8.554482,1.721066,-0.753339,-1.141724
172000,-0.624887,-0.926556,8.520964,1.339386,0.116890,-1.126457
176000,-0.706290,-0.919373,8.453926,0.957707,-0.173186,-1.172258
180000,-0.723049,-0.869095,8.434772,0.652363,-1.180820,-0.882182
184000,-0.677559,-0.936133,8.602366,0.179081,-1.745705,-0.882182
188000,-0.706290,-0.893037,8.623915,0.285951,-2.005247,-0.515770
192000,-0.732626,-0.895431,8.659827,0.056943,-2.402194,-0.271495
196000,-0.665588,-0.885855,8.585608,-0.217866,-2.570133,0.140719
200000,-0.581791,-0.895431,8.592790,-0.843820,-2.539598,0.675070
204000,-0.588974,-0.873884,8.614338,-0.569010,-2.188453,0.583467
208000,-0.543484,-0.744597,8.616732,-0.660614,-1.241889,1.148352
212000,-0.526724,-0.739808,8.755595,-0.675881,-0.768606,1.331558
216000,-0.517148,-0.703895,8.853758,-0.767484,-0.417461,1.117818
220000,-0.495600,-0.737414,8.846576,-0.507942,-0.264789,1.102551
224000,-0.428562,-0.754174,8.944737,0.270684,0.147424,0.812474
228000,-0.399832,-0.696713,8.947132,0.866104,-0.127385,0.201787
232000,-0.435745,-0.634463,8.750807,1.293585,-0.982347,-0.469968
236000,-0.459687,-0.715866,8.973468,1.812669,-1.776240,-0.760045
240000,-0.450110,-0.663194,8.906430,2.637096,-1.928911,-1.126457
244000,-0.474052,-0.732626,8.880095,3.247783,-1.073950,-1.309663
248000,-0.548272,-0.569820,8.671799,2.911905,-0.554866,-0.989052
252000,-0.524330,-0.553061,8.705317,2.866104,-0.203721,-0.821113
256000,-0.545878,-0.450110,8.561666,2.514959,-0.371659,-0.637907
260000,-0.584185,-0.332794,8.494628,1.843203,-0.753339,-0.851648
264000,-0.483629,-0.313640,8.583213,0.621829,-1.364026,-0.821113
268000,-0.517148,-0.260968,8.614338,-0.431606,-1.012881,-0.561571
272000,-0.490811,-0.165200,8.664616,-1.027026,-0.875476,-0.576838
276000,-0.500388,-0.196325,8.765172,-1.622446,-0.447995,-0.225693
280000,-0.519542,-0.131681,8.844181,-2.248400,-0.066316,-0.515770
284000,-0.524330,-0.114922,8.944737,-3.042293,-0.631201,-0.454701
288000,-0.509965,-0.181959,9.263166,-3.194965,-0.997614,-0.256228
292000,-0.481235,-0.129287,9.387665,-3.576644,-0.738072,-0.363098
296000,-0.354342,-0.217872,9.526528,-3.469774,-0.051049,-0.073022
300000,-0.301669,-0.136469,9.655815,-2.538476,0.803913,-0.515770
304000,-0.378284,-0.138864,9.607931,-1.591912,1.368798,-0.989052
308000,-0.330400,-0.117316,9.619903,-0.584278,1.246661,-1.385999
312000,-0.344765,0.031125,9.545682,-0.385804,2.422234,-1.798213
316000,-0.488417,0.079009,9.670180,-0.187331,0.315363,-3.294396
320000,-0.634463,0.141258,9.330204,-0.187331,-4.554865,-3.935617
324000,-0.505177,0.210690,9.404425,-0.675881,-4.524331,-3.767678
328000,-0.648829,0.306458,9.521740,-0.614812,-4.600667,-3.676075
332000,-0.548272,0.471658,9.696517,-0.416339,-4.096850,-2.897449
336000,-0.555455,0.615310,9.679757,-0.874354,-5.516697,-2.714243
340000,-0.483629,0.684742,9.701305,-1.011759,-4.478529,-1.737144
344000,-0.629675,0.938527,9.849746,-1.805652,-3.974713,-0.714243
348000,-0.471658,1.041478,9.859323,-2.431606,-1.073950,1.087284
352000,-0.395043,1.180341,9.964667,-2.492675,1.338264,2.797207
356000,-0.215478,1.364695,9.785102,-2.691148,4.116890,4.125452
360000,0.007183,1.707066,9.619903,-3.485041,6.055821,5.362093
364000,0.368707,1.604115,9.459491,-2.569010,14.315363,7.606368
368000,0.536301,1.958457,9.718064,-3.515576,17.490936,6.827742
372000,0.378284,2.231396,8.947132,-3.591912,13.109256,6.094917
376000,1.048660,2.401384,8.896853,-4.553743,16.635973,6.491864
380000,1.379060,2.511518,8.954314,-6.675881,21.613073,5.362093
384000,1.206678,2.588132,8.561666,-7.729317,18.758112,2.278123
388000,1.462857,2.614468,8.238448,-8.446874,17.918417,-0.729510
392000,1.663970,2.475605,8.030152,-8.110995,18.910784,-4.011953
396000,1.438915,2.391808,7.931990,-8.294202,16.926050,-7.752411
400000,1.350330,2.336741,7.920019,-8.416339,12.040554,-11.905083
404000,1.221043,2.310405,7.845799,-8.752217,7.765746,-15.981419
408000,0.964863,2.173935,7.704541,-9.256034,2.468035,-20.103556
412000,0.811634,2.118869,7.855376,-10.782751,-2.142652,-23.401266
416000,0.514753,1.970428,8.236053,-12.309468,-6.310591,-26.317295
420000,0.339977,1.802834,8.468291,-13.317103,-8.203721,-27.798212
424000,0.083797,1.592144,8.762778,-14.004125,-7.562499,-27.798212
428000,-0.241814,1.438915,9.148245,-14.935424,-5.822041,-27.294395
432000,-0.466869,1.252167,9.282320,-15.164432,-3.028148,-25.630274
436000,-0.703895,1.086968,9.674969,-15.790385,-0.447995,-23.599739
440000,-0.919373,1.022324,9.773131,-16.736948,2.071089,-21.492868
444000,-1.115698,0.897826,9.847352,-17.622444,5.246661,-18.897449
448000,-1.252167,0.876278,9.962274,-18.309467,8.742844,-16.134090
452000,-1.359907,0.833182,10.041282,-18.523209,12.513836,-13.508137
456000,-1.477222,0.814029,9.943120,-18.935423,15.781012,-10.637908
460000,-1.496376,0.814029,9.737218,-18.462139,18.513836,-8.210426
464000,-1.505953,0.909797,9.524135,-18.630079,20.239027,-6.164625
468000,-1.613692,0.890643,9.215282,-18.446873,20.147425,-4.531037
472000,-1.587356,0.919373,8.906430,-17.591911,17.216125,-3.859281
476000,-1.618480,0.995988,8.690952,-16.721682,13.017653,-4.073022
480000,-1.553837,0.988805,8.343793,-15.439240,7.536737,-4.866915
484000,-1.491588,1.027112,8.020576,-14.233132,1.445134,-6.240961
488000,-1.601721,0.972046,7.817069,-13.317103,-6.051049,-7.859281
492000,-1.666364,0.912191,7.666234,-12.935424,-14.096850,-8.958518
496000,-1.659182,0.885855,7.546524,-13.011760,-21.486164,-9.828747
500000,-1.417367,0.916979,7.546524,-13.500308,-26.768606,-10.866915
504000,-1.146823,0.909797,7.666234,-14.569011,-30.509064,-11.401266
508000,-0.924162,0.960075,7.699753,-15.958323,-33.089218,-12.088289
512000,-0.588974,1.000776,7.934384,-18.630079,-36.417461,-13.218060
516000,-0.021548,0.828394,8.159439,-19.332369,-32.814407,-13.294396
520000,0.124498,0.816423,8.264784,-21.515575,-29.974712,-14.042488
524000,0.158017,0.751779,8.271967,-23.851452,-27.348759,-15.508137
528000,0.380678,0.701501,8.128315,-26.889620,-22.127384,-15.721877
532000,0.308852,0.521936,7.905654,-30.553741,-15.776240,-15.905083
536000,0.237026,0.454898,7.903260,-34.813286,-10.371660,-15.538671
540000,0.181959,0.205901,8.027759,-37.805653,-6.325858,-15.263862
544000,0.124498,0.124498,7.771579,-40.462139,-3.684637,-15.660809
548000,0.114922,-0.011971,7.572860,-42.996490,-3.715171,-16.240961
552000,-0.007183,-0.179565,7.852982,-45.790382,-4.677003,-16.943251
556000,-0.158017,-0.469264,8.121132,-47.652981,-7.623568,-18.256227
560000,-0.217872,-0.782904,8.494628,-46.660614,-12.157920,-19.874548
564000,-0.232238,-0.919373,8.913613,-43.943054,-16.661736,-21.492868
568000,-0.059855,-1.096544,9.217676,-38.706413,-21.226622,-23.599739
572000,-0.304064,-1.144428,9.433155,-34.416340,-32.615936,-27.752411
576000,-0.131681,-1.436521,9.232041,-27.714048,-39.135017,-29.889814
580000,0.026336,-1.520318,9.715671,-23.927788,-44.142651,-33.859280
584000,-0.306458,-1.695095,9.624691,-20.065193,-51.486164,-36.744778
588000,-0.581791,-1.936909,9.454702,-15.301835,-56.402195,-37.508137
592000,-0.706290,-2.092532,9.421184,-13.423972,-61.089218,-38.485233
596000,-0.737414,-2.248155,9.619903,-12.736949,-59.241890,-37.126457
600000,-0.919373,-2.300828,9.351752,-13.347636,-58.692272,-35.599739
604000,-0.699107,-2.410961,9.411607,-14.904889,-52.906010,-32.256229
608000,-0.792481,-2.566584,9.435549,-17.561377,-45.867844,-28.790579
612000,-0.909797,-2.657564,9.327810,-21.164431,-37.333492,-24.042486
616000,-0.857124,-2.681506,9.234436,-24.874353,-27.348759,-18.989052
620000,-0.881066,-2.621651,9.299079,-28.782749,-16.906012,-13.508137
624000,-0.816423,-2.614468,9.153033,-32.324734,-6.509064,-8.271495
628000,-0.806846,-2.722207,9.112331,-35.622444,2.239028,-3.385999
632000,-0.596156,-2.755726,9.100361,-37.759850,9.460402,0.491864
636000,-0.517148,-2.827552,8.839393,-38.782749,16.116890,2.781940
640000,-0.416591,-2.794033,8.535329,-39.622444,19.582539,3.545299
644000,-0.318429,-2.729390,8.398860,-38.950691,20.941317,3.209421
648000,-0.457293,-2.786851,8.267179,-36.752216,19.277195,1.453696
652000,-0.471658,-2.803610,7.999028,-34.233131,13.231394,-0.927984
656000,-0.392649,-2.755726,7.841011,-30.874355,5.704677,-4.882182
660000,-0.397437,-2.616863,7.493851,-27.225498,-1.150285,-8.531037
664000,-0.505177,-2.545036,7.213730,-27.057560,-14.524332,-14.134090
668000,-0.179565,-2.657564,7.225701,-25.714048,-18.799141,-16.592106
672000,-0.387861,-2.631228,7.268796,-23.988857,-25.226622,-19.813478
676000,-0.318429,-2.810793,7.074866,-26.202599,-31.593035,-21.706610
680000,-0.088585,-2.949656,6.974309,-28.401070,-30.997614,-22.195158
684000,0.035913,-3.052607,7.048530,-30.569012,-27.577766,-21.935617
688000,0.105345,-3.153164,7.055712,-33.668247,-21.516699,-20.454700
692000,-0.079009,-3.246537,6.957550,-37.194965,-15.272423,-18.775311
696000,-0.193930,-3.356671,6.775591,-41.393436,-10.127385,-15.553938
700000,0.009577,-3.531447,6.457162,-45.423973,-10.783874,-13.889816
704000,0.404620,-3.620033,6.813898,-51.164429,-1.730438,-11.004320
708000,0.648829,-3.754108,6.895301,-55.881989,6.559639,-8.439434
712000,0.809240,-3.931279,7.015011,-58.874355,12.987119,-5.920350
716000,1.072602,-4.127604,6.979098,-61.927788,21.384066,-4.210426
720000,1.146823,-4.355053,7.058106,-62.309471,28.727577,-2.882182
724000,1.051055,-4.510676,7.022193,-61.698784,29.200859,-3.477602
728000,1.187524,-4.436456,6.811504,-61.729317,24.926050,-4.775311
732000,1.460463,-4.462792,6.864176,-62.080460,24.452768,-6.958518
736000,1.577779,-4.644751,6.916849,-62.752213,23.811546,-9.126457
740000,1.510741,-4.783615,7.328651,-62.141525,21.475668,-12.134090
744000,1.872266,-5.408502,8.161834,-55.652981,30.956585,-12.989053
748000,1.213860,-5.533000,8.489840,-49.210232,29.796280,-17.492868
752000,0.905008,-5.743690,8.185776,-41.317101,21.765745,-21.844013
756000,0.787692,-6.019023,8.434772,-32.935421,15.979485,-25.721876
760000,0.591368,-6.246472,8.350976,-23.133896,9.735210,-29.660807
764000,0.172383,-6.318298,7.675811,-16.172064,2.025287,-33.492870
768000,-0.205901,-6.222530,7.012617,-14.492675,-6.524331,-36.408897
772000,-0.447716,-6.330269,6.509834,-15.546111,-12.234255,-38.225693
776000,-0.263362,-6.349423,6.476315,-17.194963,-15.455629,-39.111191
780000,-0.289698,-6.449979,6.725313,-19.088095,-13.470897,-38.622639
784000,-0.488417,-6.634333,6.890512,-21.683514,-9.928912,-37.385998
788000,-0.577003,-6.713342,6.916849,-24.691147,-5.302957,-35.111191
792000,-0.588974,-6.751649,7.132327,-27.836185,0.864982,-32.607372
796000,-0.615310,-6.770802,7.345411,-31.210232,6.239028,-30.042486
800000,-0.624887,-6.646304,7.553706,-33.866718,13.719943,-27.401266
804000,-0.766145,-6.593631,7.714118,-36.889622,19.429867,-24.897449
808000,-0.905008,-6.545747,7.711724,-38.614811,25.139790,-22.302029
812000,-0.900220,-6.538565,7.824251,-40.095726,30.605440,-19.065388
816000,-1.003170,-6.548141,7.951144,-40.233131,35.139790,-16.149357
820000,-0.952892,-6.514623,8.013393,-39.866718,37.414600,-13.767678
824000,-0.984017,-6.552930,7.948750,-39.317101,38.864983,-11.706610
828000,-1.132457,-6.445191,8.006210,-38.233131,38.529102,-9.950885
832000,-1.158794,-6.385336,8.092402,-35.897255,36.177959,-8.760045
836000,-1.022324,-6.457162,8.396465,-32.065193,31.368797,-8.164625
840000,-0.730232,-6.466739,8.801085,-25.362904,28.712309,-7.889815
844000,-0.811634,-6.423643,8.817844,-18.416338,22.941317,-9.263862
848000,-0.842759,-6.291962,8.671799,-10.965958,15.994753,-10.744778
852000,-0.770933,-6.325481,8.537724,-3.271301,11.872615,-11.172258
856000,-0.945710,-6.028600,8.190564,2.209615,0.727577,-13.111190
860000,-1.055843,-5.784391,7.860164,6.789768,-8.386927,-14.134090
864000,-1.005565,-5.628768,7.565677,9.263050,-17.180820,-14.454701
868000,-0.706290,-5.475539,7.481880,11.614196,-20.722805,-13.355465
872000,-0.495600,-5.487510,7.515399,13.461523,-22.295324,-12.439434
876000,-0.131681,-5.216966,7.532158,16.072210,-18.951813,-10.958518
880000,0.050278,-5.087678,7.182605,16.621830,-18.692270,-10.561572
884000,0.162806,-5.051765,6.890512,16.530226,-16.814407,-9.508137
888000,0.112527,-5.011064,6.816292,16.163815,-9.684637,-6.866915
892000,0.134075,-4.888960,6.557718,15.843203,-4.967079,-4.989052
896000,0.213084,-4.807557,6.385336,14.148546,-2.692270,-3.828747
900000,0.124498,-4.829105,6.189012,13.049310,0.635974,-2.149358
904000,0.064643,-4.821922,6.234501,10.591294,3.719944,-0.439434
908000,0.016759,-4.735731,6.143522,8.499692,4.742845,1.041482
912000,-0.011971,-4.742914,6.153099,5.904272,2.864982,1.392627
916000,0.090980,-4.663905,6.543353,5.171447,3.689409,2.476597
920000,0.174777,-4.639963,6.708553,4.438623,3.445134,2.797207
924000,0.217872,-4.582502,6.964733,4.209615,2.574905,2.522398
928000,0.241814,-4.587290,6.967127,4.255417,2.132157,2.690337
932000,0.205901,-4.608838,7.062895,4.484425,3.597806,2.980413
936000,0.021548,-4.675876,7.390901,5.034043,2.742844,3.178887
940000,-0.251391,-4.721366,7.817069,7.140913,0.025287,3.010948
944000,-0.502782,-4.742914,8.075643,10.255417,-2.875476,4.537665
948000,-0.679953,-4.730943,8.252813,12.866103,-7.974713,6.339192
952000,-0.691924,-4.778827,8.619126,15.385187,-8.890744,9.163619
956000,-0.483629,-4.745308,8.631097,17.385187,-9.623569,11.774306
960000,-0.263362,-4.709395,8.760384,19.049311,-8.249522,14.262856
964000,0.011971,-4.568137,8.808268,20.316486,-5.654102,16.125452
968000,0.098162,-4.465186,8.832211,21.186716,-3.760972,17.636902
972000,0.160412,-4.163517,8.896853,21.140913,-7.425095,17.209421
976000,0.557849,-4.005499,8.851364,22.285952,-3.287690,18.995682
980000,0.811634,-3.809175,9.212888,23.492058,-2.127385,19.102551
984000,0.950498,-3.751714,9.167398,24.820303,-4.295324,18.003315
988000,1.204283,-3.617639,9.040505,26.285952,-2.264789,17.209421
992000,1.297657,-3.514688,9.042900,26.820303,-2.417461,15.621634
996000,1.237802,-3.495534,8.951921,27.889006,-3.928911,13.804840
1000000,1.089362,-3.466804,8.961497,29.644730,-5.684637,12.140718
1004000,0.988805,-3.452439,8.741230,30.743967,-6.066316,11.133085
1008000,0.943315,-3.390190,8.497022,31.308853,-6.738071,10.873543
1012000,0.837971,-3.421314,8.346188,30.591295,-6.447995,10.659802
1016000,0.895431,-3.450045,8.283937,29.843204,-5.348759,9.972779
1020000,0.864307,-3.581726,8.180987,28.163815,-3.470896,9.010947
1024000,0.768539,-3.672705,8.147469,27.415724,-0.936545,8.278123
1028000,0.486023,-3.687071,8.137892,26.972975,0.956585,7.392627
1032000,0.263362,-3.620033,8.118738,26.240150,1.368798,6.644536
1036000,-0.153229,-3.500323,8.078036,24.942440,-3.379293,5.148353
1040000,-0.241814,-3.629610,8.161834,26.087479,-1.883110,6.018581
1044000,-0.541090,-3.533842,8.176199,25.659998,-2.051049,6.171253
1048000,-0.742203,-3.399766,8.111555,24.896639,-2.600667,6.659803
1052000,-1.029507,-3.354277,8.133103,23.186716,-3.837308,7.789574
1056000,-1.254562,-3.141193,8.068460,21.446257,-3.745705,8.888810
1060000,-1.446098,-2.810793,8.216900,19.659998,-3.501430,11.163619
1064000,-1.482011,-2.545036,8.475474,18.667631,-1.867843,14.461329
1068000,-1.486799,-2.456451,8.561666,19.766867,1.765745,18.629269
1072000,-1.328782,-2.315193,8.487445,21.293585,4.987119,22.614002
1076000,-1.082179,-2.006341,8.190564,22.316486,8.315363,26.369726
1080000,-0.969652,-1.731008,8.025364,21.400455,8.987119,28.369726
1084000,-0.612916,-1.628057,8.231265,22.331753,10.742844,30.446062
1088000,-0.471658,-1.477222,8.154651,20.911905,3.719944,30.033850
1092000,-0.059855,-1.450886,8.214506,20.469158,-0.661736,29.453697
1096000,0.112527,-1.307234,8.513782,19.110378,-5.211354,27.621635
1100000,0.512359,-1.233014,8.497022,18.972975,-6.936545,26.155987
1104000,0.758962,-1.192312,8.786720,18.988241,-7.760972,24.690338
1108000,0.701501,-1.048660,8.655039,17.934807,-10.906011,22.140718
1112000,0.758962,-1.017536,8.614338,17.324120,-11.730438,20.598734
1116000,0.818817,-0.976834,8.877700,15.995874,-12.570133,19.270491
1120000,0.940921,-0.823605,8.930372,14.423355,-12.661736,18.110186
1124000,1.146823,-0.727837,9.150639,12.285951,-12.218988,16.904078
1128000,1.292869,-0.689530,9.227253,9.965341,-9.974713,15.453695
1132000,1.484405,-0.684742,9.483433,8.606562,-8.554866,13.636902
1136000,1.848324,-0.679953,9.715671,8.285952,-0.463263,12.293390
1140000,1.855506,-0.627281,9.895236,7.644730,8.681775,10.843008
1144000,1.647211,-0.739808,9.895236,7.614195,13.811546,8.369726
1148000,1.323994,-0.708684,9.768343,7.308852,16.620707,6.140719
1152000,1.125275,-0.811634,9.502586,6.896638,21.170324,4.598734
1156000,0.751779,-0.950498,9.368511,7.095111,22.529104,2.232322
1160000,0.150835,-1.072602,8.923190,7.721066,19.765745,-0.347831
1164000,-0.347159,-1.170765,8.523358,6.957707,12.849714,-2.729510
1168000,-0.565032,-1.350330,8.520964,6.896638,9.185592,-4.027220
1172000,-0.979228,-1.522712,8.453926,6.835569,3.582539,-5.828747
1176000,-1.122881,-1.654393,8.465898,7.705798,-0.906011,-6.424167
1180000,-1.259350,-1.759738,8.429984,7.827936,-3.547232,-6.836380
1184000,-1.345541,-1.798046,8.379706,7.950073,-5.623568,-7.218060
1188000,-1.462857,-1.716643,8.286332,7.354653,-7.486163,-7.218060
1192000,-1.477222,-1.754950,8.233660,6.988241,-8.280057,-7.141724
1196000,-1.623269,-1.857901,8.159439,6.682898,-7.883110,-5.691342
1200000,-1.877054,-1.850718,8.078036,5.705799,-7.348759,-3.706610
1204000,-1.862689,-1.900996,8.090008,4.163814,-6.814407,-1.431800
1208000,-1.623269,-1.877054,8.231265,3.110379,-5.028148,0.904078
1212000,-1.379060,-2.006341,8.350976,3.446256,-1.196087,2.919345
1216000,-1.252167,-2.051831,8.532935,3.889004,3.063455,4.262856
1220000,-1.240196,-2.027889,8.389283,3.934806,5.994753,5.759039
1224000,-1.027112,-1.987187,8.425196,3.568394,8.239027,6.659803
1228000,-1.094150,-1.994370,8.214506,1.324119,4.574905,6.140719
1232000,-0.952892,-2.111686,8.264784,1.797401,8.361164,7.606368
1236000,-1.067814,-2.161964,8.276755,0.682898,6.712310,7.972780
1240000,-1.194707,-2.138022,8.183381,0.591295,2.010020,7.774307
1244000,-0.569820,-2.229002,8.286332,0.835569,4.391699,8.888810
1248000,-0.100556,-2.272097,8.561666,2.667631,11.002386,8.690337
1252000,-0.395043,-2.296039,8.245630,2.743967,9.261928,7.117818
1256000,-0.337582,-2.308010,8.236053,3.049310,8.605439,6.690337
1260000,-0.378284,-2.281674,8.078036,2.820302,6.544371,5.759039
1264000,-0.146046,-2.300828,7.939173,2.560760,5.826814,5.881177
1268000,-0.028730,-2.308010,8.133103,2.316485,5.552005,4.949879
1272000,0.040701,-2.262521,8.140285,1.415722,3.338264,3.896444
1276000,0.354342,-2.233790,8.128315,1.797401,5.796279,3.728505
1280000,0.363919,-2.130840,7.996634,2.041676,9.109256,3.178887
1284000,0.294487,-2.092532,7.826645,1.827936,9.948951,2.140719
1288000,0.268151,-1.977611,7.754819,0.606562,8.910783,1.316291
1292000,0.313640,-2.075773,7.649475,-0.187331,10.559638,0.705604
1296000,0.167594,-2.063802,7.544129,-0.645346,10.742844,0.308658
1300000,0.057461,-2.123657,7.352593,-1.179698,9.994752,-0.378365
1304000,0.031125,-2.114080,7.196970,-2.049927,8.849714,-1.034854
1308000,0.047884,-2.248155,7.235278,-2.416339,9.032920,-1.263861
1312000,-0.162806,-2.214637,7.271191,-2.813286,5.490936,-2.240961
1316000,-0.019154,-2.384625,7.386112,-1.820919,7.246661,-1.584472
1320000,0.002394,-2.303222,7.668628,-1.057560,8.987119,-2.134090
1324000,-0.253785,-2.415750,7.661446,-0.217866,8.681775,-2.302029
1328000,-0.299275,-2.398990,7.548918,0.377554,8.788646,-2.271495
1332000,-0.435745,-2.420538,7.517793,0.499691,8.895515,-2.515770
1336000,-0.761356,-2.410961,7.400477,0.682898,7.628340,-2.134090
1340000,-1.110910,-2.458845,7.481880,0.316485,3.628341,-2.057755
1344000,-1.429338,-2.576161,7.678205,0.682898,-0.341125,-0.393632
1348000,-1.498770,-2.621651,7.618350,1.690531,-3.196087,1.850642
1352000,-1.448492,-2.607286,7.618350,2.148547,-4.539598,4.155986
1356000,-1.352724,-2.545036,7.527370,1.430989,-3.501430,7.285757
1360000,-1.163582,-2.494758,7.587225,-0.538476,-3.562499,9.545299
1364000,-0.806846,-2.415750,7.647080,-2.034660,-2.310591,12.079650
1368000,-0.361524,-2.351106,7.776367,-2.950690,-2.386927,13.163619
1372000,0.069432,-2.284068,7.970297,-3.836186,-1.470896,13.881176
1376000,0.430956,-2.164358,8.054094,-4.691149,0.406966,14.110184
1380000,0.648829,-2.133234,8.195353,-5.149163,2.895516,13.743772
1384000,0.881066,-2.049437,8.169016,-5.133897,5.750478,13.010947
1388000,1.094150,-1.977611,8.291121,-5.133897,8.941318,11.759039
1392000,1.194707,-1.944092,8.207323,-5.423973,12.544371,9.774306
1396000,1.108515,-1.994370,8.118738,-5.332370,13.643607,7.789574
1400000,0.914585,-1.927332,8.212111,-5.362904,15.032920,5.988047
1404000,0.632069,-2.020706,8.212111,-4.569011,13.475668,3.972780
1408000,0.572214,-2.090138,8.152257,-3.317102,11.567271,1.988047
1412000,0.433351,-2.044648,8.248025,-2.507942,11.139791,0.400261
1416000,0.165200,-2.116474,8.044518,-2.462140,8.635974,-1.645541
1420000,0.098162,-2.030283,7.951144,-2.004125,7.338264,-2.332564
1424000,-0.014365,-2.085350,7.867347,-1.927789,5.994753,-3.630274
1428000,-0.241814,-2.185906,7.891289,-2.278934,3.750478,-4.668441
1432000,-0.361524,-2.224213,8.087613,-2.614812,1.643608,-5.279129
1436000,-0.452504,-2.286463,8.066066,-3.011759,0.605440,-5.889815
1440000,-0.502782,-2.341529,8.094796,-3.973591,-0.554866,-5.935617
1444000,-0.627281,-2.446874,8.216900,-4.492675,-1.638835,-6.179892
1448000,-0.746991,-2.513912,8.418014,-5.072827,-2.722805,-5.752411
1452000,-0.897826,-2.612074,8.406042,-5.790385,-3.028148,-5.050121
1456000,-0.890643,-2.686294,8.643068,-6.370538,-3.196087,-4.240961
1460000,-0.852336,-2.695871,8.690952,-7.057561,-2.157919,-2.958518
1464000,-0.792481,-2.691083,8.633492,-7.744583,0.498570,-1.630274
1468000,-0.818817,-2.722207,8.640674,-8.187331,3.017654,-0.118823
1472000,-0.775721,-2.568978,8.554482,-9.118629,4.620707,1.056749
1476000,-0.687136,-2.530671,8.511387,-10.126263,5.567272,1.591100
1480000,-0.603339,-2.535460,8.576031,-10.889622,6.269562,2.446062
1484000,-0.514753,-2.497152,8.734048,-11.393438,6.422234,2.843009
1488000,-0.399832,-2.554613,8.995016,-11.912522,5.597806,3.117818
1492000,-0.234632,-2.537854,9.200917,-11.668247,5.719944,3.224688
1496000,-0.090980,-2.528277,9.301474,-11.286569,4.101623,2.217055
1500000,0.122104,-2.530671,9.555259,-9.897255,8.422234,2.980413
1504000,0.169988,-2.501941,9.495404,-8.874354,10.864982,2.476597
1508000,0.210690,-2.540248,9.457097,-7.515575,11.948951,1.804841
1512000,0.162806,-2.540248,9.437943,-5.775118,12.132157,1.102551
1516000,0.155623,-2.516306,9.325416,-4.324736,11.689409,-0.225693
1520000,-0.138864,-2.511518,9.148245,-2.904888,9.765745,-1.615006
1524000,-0.387861,-2.480393,8.916007,-1.576644,5.368799,-2.760045
1528000,-0.366313,-2.473210,8.841787,-0.141530,0.987119,-4.164625
1532000,-0.330400,-2.497152,8.875306,1.614195,-1.379293,-4.744777
1536000,-0.416591,-2.468422,8.726865,2.759233,-3.165553,-5.447067
1540000,-0.380678,-2.408567,8.571242,3.308852,-4.921278,-6.286762
1544000,-0.339977,-2.291251,8.542512,3.201982,-5.547232,-6.790579
1548000,-0.304064,-2.262521,8.339005,3.034043,-5.104484,-7.553937
1552000,-0.440533,-2.224213,8.157045,2.957707,-4.631201,-8.011953
1556000,-0.505177,-2.214637,7.946355,2.285951,-4.967079,-7.889815
1560000,-0.682347,-2.154782,7.802703,1.598928,-7.012881,-8.149358
1564000,-0.756568,-2.190695,7.807492,0.423356,-7.364026,-7.324930
1568000,-0.696713,-2.312799,7.867347,-0.446873,-6.799140,-6.805846
1572000,-0.758962,-2.365471,7.809886,-1.271301,-4.493797,-5.782945
1576000,-0.938527,-2.365471,7.534553,-2.950690,-4.127385,-4.118823
1580000,-0.881066,-2.432509,7.675811,-5.179698,-3.883110,-2.317297
1584000,-0.802058,-2.473210,7.829040,-6.736950,-3.364026,-1.462335
1588000,-0.706290,-2.504335,8.078036,-7.943057,-4.967079,-0.683709
1592000,-0.464475,-2.621651,8.477868,-7.423973,-5.470896,-0.668442
1596000,-0.256180,-2.614468,8.822633,-6.691149,-4.997613,-0.393632
1600000,-0.143652,-2.669535,9.016563,-5.378171,-3.180820,-0.958518
1604000,-0.153229,-2.664747,8.963891,-3.988858,-1.135018,-1.050121
1608000,-0.217872,-2.616863,8.887277,-3.072828,0.483302,-0.973785
1612000,-0.378284,-2.547431,8.781932,-2.431606,1.368798,-0.790579
1616000,-0.316035,-2.557007,8.540117,-1.256034,0.681776,-1.233327
1620000,-0.409408,-2.564190,8.406042,-0.263667,-1.593034,-2.164625
1624000,-0.299275,-2.506729,8.303091,0.087478,-4.951812,-3.233327
1628000,-0.339977,-2.513912,8.240842,0.896638,-8.707538,-4.469968
1632000,-0.179565,-2.480393,8.197746,1.461524,-11.944179,-5.828747
1636000,-0.110133,-2.547431,8.305486,1.812669,-14.051049,-7.233327
1640000,-0.043096,-2.657564,8.293514,2.423356,-15.318225,-8.531037
1644000,-0.136469,-2.633622,8.492233,2.759233,-15.837309,-9.447068
1648000,-0.289698,-2.683900,8.475474,2.911905,-16.402193,-9.599740
1652000,-0.354342,-2.750938,8.530540,3.263050,-15.989981,-9.599740
1656000,-0.378284,-2.798822,8.552089,3.156180,-14.936545,-9.492869
1660000,-0.469264,-2.743755,8.506598,2.896638,-13.425095,-8.912717
1664000,-0.476446,-2.765303,8.348581,2.072211,-11.364026,-8.042487
1668000,-0.574608,-2.726996,8.425196,2.377554,-8.585401,-7.172258
1672000,-0.768539,-2.726996,8.372523,2.224883,-5.822041,-5.156991
1676000,-0.773327,-2.722207,8.224083,0.789768,-3.822041,-3.492869
1680000,-0.761356,-2.695871,8.300697,-0.859087,-2.066316,-2.042487
1684000,-0.670376,-2.695871,8.408437,-1.881988,0.208493,-0.805846
1688000,-0.641646,-2.765303,8.410830,-2.614812,3.216127,0.278123
1692000,-0.565032,-2.724602,8.382100,-2.889621,5.796279,1.682703
1696000,-0.603339,-2.803610,8.573636,-3.500308,7.475669,2.614001
1700000,-0.502782,-2.753332,8.525752,-3.607178,7.918417,3.056749
1704000,-0.541090,-2.686294,8.647857,-3.301835,8.132157,3.331558
1708000,-0.450110,-2.679112,8.669404,-2.706415,7.994752,3.453696
1712000,-0.454898,-2.636016,8.561666,-2.278934,7.185593,3.484231
1716000,-0.399832,-2.643199,8.458714,-1.820919,5.826814,3.346826
1720000,-0.275333,-2.743755,8.547300,-1.271301,5.032921,3.056749
1724000,-0.148441,-2.659958,8.566454,-0.889621,4.819180,2.568200
1728000,-0.193930,-2.535460,8.583213,-0.004125,4.651241,1.713238
1732000,-0.131681,-2.501941,8.556877,0.774501,3.017654,1.209421
1736000,-0.059855,-2.485181,8.441956,1.186714,1.170325,0.507131
1740000,-0.014365,-2.408567,8.298303,1.614195,-0.203721,-0.210426
1744000,0.081403,-2.365471,8.190564,1.598928,-0.173186,-1.095922
1748000,0.045490,-2.358289,8.312668,0.850837,-0.020514,-1.660808
1752000,0.038307,-2.358289,8.137892,0.102745,1.170325,-1.844014
1756000,0.043096,-2.403779,8.394072,-0.523209,2.956585,-1.630274
1760000,-0.043096,-2.387019,8.291121,-1.103362,4.895516,-1.676075
1764000,-0.045490,-2.403779,8.322245,-1.668247,6.712310,-1.034854
1768000,-0.122104,-2.461239,8.341399,-2.202598,7.842081,-0.790579
1772000,-0.167594,-2.482787,8.525752,-2.370538,8.910783,-0.698976
1776000,-0.181959,-2.568978,8.707711,-1.591912,9.994752,-0.378365
1780000,-0.244209,-2.612074,8.688558,-0.630080,10.834447,-0.134090
1784000,-0.335188,-2.597709,8.729259,0.072211,10.483302,-0.057755
1788000,-0.347159,-2.614468,8.564059,0.514959,9.964218,0.125452
1792000,-0.354342,-2.616863,8.374918,0.728699,9.918416,0.186520
1796000,-0.502782,-2.705448,8.408437,1.110379,8.742844,0.384994
1800000,-0.538695,-2.724602,8.465898,1.522592,7.429867,0.873543
1804000,-0.490811,-2.674323,8.611943,2.392821,6.834447,1.392627
1808000,-0.567426,-2.607286,8.499416,2.789768,6.269562,1.713238
1812000,-0.639252,-2.652776,8.583213,3.049310,5.277195,1.759039
1816000,-0.442927,-2.614468,8.497022,3.308852,4.620707,1.881177
1820000,-0.402226,-2.643199,8.508993,3.140913,3.887883,1.575833
1824000,-0.349553,-2.607286,8.382100,3.278317,2.712310,0.827742
1828000,-0.304064,-2.547431,8.441956,3.843203,0.910783,0.415528
1832000,-0.296881,-2.638410,8.432379,4.301219,-0.615934,-0.622640
1836000,-0.332794,-2.571373,8.394072,4.530226,-1.852576,-0.775312
1840000,-0.347159,-2.566584,8.298303,4.331753,-3.119751,-1.156991
1844000,-0.414197,-2.566584,8.176199,4.026409,-3.791507,-1.492869
1848000,-0.416591,-2.468422,8.164227,3.858470,-4.051049,-1.447067
1852000,-0.438139,-2.492364,8.066066,3.110379,-4.157919,-1.202793
1856000,-0.375890,-2.470816,7.943961,1.736333,-4.020514,-1.233327
1860000,-0.361524,-2.475605,8.010999,0.408088,-3.562499,-1.324930
1864000,-0.349553,-2.415750,8.226477,-0.599545,-2.967079,-1.126457
1868000,-0.351948,-2.415750,8.202535,-0.965957,-2.249522,-0.576838
1872000,-0.339977,-2.432509,8.183381,-2.416339,-1.623568,-0.210426
1876000,-0.378284,-2.437297,8.360553,-2.996492,1.475669,0.583467
1880000,-0.450110,-2.492364,8.310274,-3.927789,3.277195,1.575833
1884000,-0.497994,-2.477999,8.559271,-3.668247,2.910783,2.003314
1888000,-0.313640,-2.513912,8.556877,-3.591912,3.613073,2.583467
1892000,-0.198719,-2.504335,8.616732,-3.775118,4.513837,2.675070
1896000,-0.141258,-2.540248,8.547300,-3.927789,4.513837,2.354459
1900000,-0.143652,-2.568978,8.571242,-4.156797,3.475669,2.155986
1904000,-0.083797,-2.552219,8.626308,-4.110995,3.887883,1.560566
1908000,-0.129287,-2.619257,8.537724,-4.095729,4.208493,0.858276
1912000,-0.213084,-2.549825,8.403648,-3.271301,3.460402,-0.134090
1916000,-0.390255,-2.576161,8.245630,-2.294202,0.910783,-1.324930
1920000,-0.483629,-2.726996,8.262390,-1.439240,-2.631201,-2.317297
1924000,-0.761356,-2.782062,8.341399,-0.401072,-6.524331,-3.172258
1928000,-0.916979,-2.844312,8.504205,0.331753,-10.249522,-3.721877
1932000,-0.871489,-2.913743,8.597578,1.049310,-12.860209,-3.309663
1936000,-0.826000,-2.887407,8.820239,1.843203,-13.302958,-3.172258
1940000,-0.804452,-2.813187,8.851364,2.469157,-12.783874,-2.408900
1944000,-0.826000,-2.782062,8.652645,3.537859,-11.516698,-1.905083
1948000,-0.758962,-2.679112,8.477868,4.499691,-9.165553,-0.989052
1952000,-0.723049,-2.530671,8.422802,3.980608,-7.944179,0.278123
1956000,-0.739808,-2.554613,8.384495,3.079844,-7.760972,0.736139
1960000,-0.634463,-2.449268,8.343793,2.056943,-6.631201,1.591100
1964000,-0.462081,-2.511518,8.528147,1.461524,-4.386927,2.308658
1968000,-0.442927,-2.420538,8.695741,1.079844,-2.951812,2.965146
1972000,-0.253785,-2.437297,8.566454,0.972974,-0.799140,3.438429
1976000,-0.169988,-2.387019,8.554482,0.423356,0.666508,3.316291
1980000,-0.153229,-2.372654,8.535329,0.285951,2.880249,3.377360
1984000,-0.069432,-2.351106,8.549694,-0.065194,3.567272,3.194154
1988000,-0.095768,-2.403779,8.477868,-0.446873,2.971852,2.919345
1992000,-0.016759,-2.363077,8.470686,-1.179698,3.093989,2.675070
1996000,-0.007183,-2.336741,8.432379,-1.591912,3.338264,1.957513
