time_us,ax,ay,az,gx,gy,gz
0,-0.225055,-2.212242,8.331821,5.583661,-1.180820,-1.950884
4000,-0.280122,-2.176329,8.300697,4.759233,-1.501431,-1.523403
8000,-0.239420,-2.181118,8.331821,3.614195,-1.440362,-1.050121
12000,-0.189142,-2.169147,8.336611,2.988241,-1.699904,-0.714243
16000,-0.186748,-2.154782,8.243237,2.484425,-1.409827,-0.332564
20000,-0.114922,-2.188300,8.350976,1.873737,-1.562499,-0.622640
24000,-0.076614,-2.221819,8.449138,1.858470,-1.959446,-0.851648
28000,-0.146046,-2.152387,8.504205,2.438623,-2.692270,-1.218060
32000,-0.126893,-2.176329,8.578424,2.759233,-3.699904,-1.706609
36000,-0.057461,-2.181118,8.602366,3.018775,-4.341125,-2.210426
40000,-0.052672,-2.169147,8.542512,3.430989,-4.799140,-2.378365
44000,-0.038307,-2.188300,8.552089,4.011142,-5.104484,-2.698976
48000,-0.009577,-2.200271,8.497022,4.163814,-5.623568,-3.141724
52000,-0.248997,-2.171541,8.432379,4.362287,-7.318224,-3.462335
56000,-0.318429,-2.209848,8.449138,4.331753,-9.379293,-3.294396
60000,-0.476446,-2.257732,8.501810,4.331753,-11.531965,-2.912716
64000,-0.521936,-2.281674,8.523358,4.240149,-13.837309,-2.576838
68000,-0.390255,-2.274492,8.508993,4.270684,-15.684637,-1.721877
72000,-0.325611,-2.200271,8.477868,4.209615,-16.860210,-1.874548
76000,-0.351948,-2.243367,8.508993,3.721066,-18.112118,-1.248594
80000,-0.361524,-2.233790,8.683769,3.201982,-18.936544,-0.683709
84000,-0.392649,-2.293645,8.623915,2.408089,-18.844942,-0.210426
88000,-0.292093,-2.300828,8.810662,1.797401,-18.707539,0.598734
92000,-0.272939,-2.264915,8.856153,1.537859,-17.944180,1.636902
96000,-0.165200,-2.252944,8.815451,1.736333,-17.409828,1.865910
100000,-0.009577,-2.164358,8.894460,1.904272,-17.577766,1.530032
104000,0.148441,-2.109292,8.932767,2.133279,-18.509064,0.568200
108000,0.227449,-2.097321,9.088389,2.988241,-19.501431,-0.698976
112000,0.237026,-2.128445,9.279925,4.072211,-19.974712,-1.844014
116000,0.064643,-2.171541,9.471462,5.415722,-21.028149,-2.347831
120000,0.110133,-2.200271,9.509769,6.789768,-22.722805,-3.202793
124000,0.088585,-2.195483,9.576807,8.469157,-24.249523,-4.011953
128000,0.112527,-2.240973,9.605537,10.438622,-25.302958,-4.989052
132000,0.165200,-2.240973,9.598354,12.392821,-26.860210,-5.813479
136000,0.114922,-2.205060,9.607931,13.827935,-27.867844,-6.882182
140000,0.093374,-2.183512,9.636662,14.942439,-28.890743,-7.370731
144000,0.117316,-2.181118,9.665392,16.942440,-29.760973,-7.966151
148000,0.088585,-2.166753,9.572019,18.469158,-30.570133,-8.393633
152000,-0.009577,-2.147599,9.382876,19.751600,-31.455629,-9.202793
156000,-0.143652,-2.106898,9.287108,21.186716,-33.760971,-10.118824
160000,-0.316035,-2.056619,9.155427,22.255417,-36.539600,-10.622641
164000,-0.464475,-2.066196,8.961497,23.492058,-38.860210,-10.561572
168000,-0.524330,-1.980005,8.822633,23.721066,-40.707539,-10.103557
172000,-0.426168,-1.912967,8.650250,24.148548,-42.707539,-9.706610
176000,-0.375890,-1.867477,8.523358,24.698166,-44.386929,-9.706610
180000,-0.378284,-1.783680,8.453926,24.805037,-47.318226,-9.553938
184000,-0.311246,-1.745373,8.513782,25.171448,-50.325859,-9.233328
188000,-0.251391,-1.707066,8.458714,24.988241,-53.135017,-9.080656
192000,-0.126893,-1.675941,8.394072,24.591295,-54.967079,-9.172258
196000,-0.098162,-1.651999,8.154651,23.873737,-55.944180,-8.805846
200000,-0.129287,-1.673547,8.209718,22.499693,-56.218987,-8.195159
204000,-0.268151,-1.690306,8.231265,20.514959,-56.722805,-7.126457
208000,-0.079009,-1.654393,8.315063,19.522593,-56.692272,-6.500503
212000,-0.033519,-1.596933,8.185776,18.805035,-56.844944,-6.240961
216000,0.081403,-1.604115,8.221688,18.179081,-58.860210,-6.011953
220000,0.292093,-1.513135,8.415619,18.087479,-60.982346,-6.592105
224000,0.399832,-1.572991,8.686164,18.652363,-62.707539,-7.218060
228000,0.521936,-1.556231,8.808268,19.782135,-63.883110,-8.164625
232000,0.481235,-1.520318,8.872911,20.637096,-65.699898,-8.561572
236000,0.481235,-1.515530,8.784326,21.400455,-66.982346,-8.683709
240000,0.553061,-1.484405,8.784326,21.889006,-67.760971,-8.989053
244000,0.565032,-1.458069,8.738836,22.453890,-68.783867,-9.385999
248000,0.414197,-1.532289,8.690952,22.957708,-70.600662,-9.645541
252000,0.308852,-1.553837,8.499416,22.759233,-84.295319,-12.653174
256000,0.802058,-1.575385,9.224859,25.751600,-76.661736,-10.363098
260000,0.529119,-1.649605,9.133880,26.560760,-79.486160,-11.615006
264000,0.588974,-1.582567,8.810662,28.774502,-83.928909,-11.706610
268000,0.881066,-1.513135,9.021352,31.339388,-81.638832,-10.805846
272000,0.792481,-1.412579,9.030929,32.316486,-85.837303,-11.966152
276000,1.201889,-1.458069,8.971074,34.392822,-91.104477,-13.156992
280000,1.414973,-1.297657,8.896853,36.637096,-93.348755,-15.523404
284000,1.369483,-1.228225,8.710106,38.453892,-101.944176,-18.302029
288000,1.508347,-1.098939,8.851364,40.362289,-109.638832,-20.897449
292000,1.802834,-1.106121,8.923190,43.186714,-112.386925,-22.653173
296000,1.788469,-1.024718,8.769960,44.881371,-116.417458,-24.866915
300000,1.766921,-0.995988,8.623915,46.072212,-119.684631,-26.607372
304000,1.666364,-1.010353,8.552089,47.782135,-123.837303,-28.622639
308000,1.561020,-1.096544,8.501810,49.751602,-125.959442,-29.462334
312000,1.489193,-1.149217,8.444349,51.049309,-120.677002,-27.676075
316000,0.766145,-0.869095,7.905654,48.469158,-129.638840,-29.279127
320000,1.074997,-0.974440,7.747637,47.125645,-129.516708,-26.592106
324000,1.024718,-0.955287,7.673417,45.461525,-125.333488,-23.767677
328000,0.902614,-0.895431,7.572860,42.347019,-126.234253,-21.080654
332000,1.165976,-0.830788,7.520187,39.721066,-125.944176,-18.195158
336000,1.565808,-0.720655,7.448361,37.110378,-124.539597,-16.286762
340000,1.968034,-0.548272,7.316680,35.568394,-123.440361,-14.882182
344000,2.238579,-0.481235,7.309498,34.102745,-121.928909,-14.531037
348000,2.501941,-0.339977,7.299921,32.255417,-123.562492,-15.141725
352000,2.717419,-0.287304,7.357382,31.324120,-125.852570,-15.798213
356000,3.078943,-0.229843,7.364564,31.385189,-128.692276,-17.218060
360000,3.196259,-0.122104,7.398083,31.598928,-132.386932,-18.790579
364000,3.404555,-0.100556,7.345411,31.980608,-136.936554,-20.882181
368000,3.509900,-0.201113,7.240066,32.026409,-141.562500,-22.866915
372000,3.684676,-0.217872,7.275979,31.889006,-143.822052,-24.286762
376000,3.531447,-0.378284,7.577648,31.766869,-148.860214,-26.332563
380000,3.210624,-0.526724,7.740454,31.644730,-153.302963,-26.531036
384000,3.157952,-0.675165,8.137892,32.270683,-155.455627,-25.752411
388000,3.045424,-0.854730,8.372523,32.682896,-157.516708,-24.408899
392000,3.031059,-1.022324,8.626308,33.889004,-159.257156,-22.363098
396000,3.007117,-1.156399,8.798691,34.881371,-160.157928,-19.813478
400000,3.066972,-1.233014,9.047688,36.408089,-160.188461,-16.821114
404000,3.141193,-1.309628,9.114726,37.263050,-159.104492,-13.202793
408000,3.481169,-1.335965,9.414001,38.026409,-156.921280,-9.584473
412000,4.077325,-1.300052,9.461885,39.995876,-152.799149,-6.454701
416000,4.448427,-1.144428,9.392453,41.446259,-149.394562,-4.989052
420000,4.860229,-1.060631,9.090784,43.140915,-147.409836,-4.500503
424000,5.173870,-0.972046,8.884883,43.278316,-145.577774,-4.943251
428000,5.152322,-0.852336,8.497022,42.621830,-144.203720,-5.050121
432000,5.149928,-0.802058,8.109161,40.942440,-146.875473,-5.477602
436000,5.808333,-0.782904,8.197746,41.354652,-146.661743,-6.378365
440000,6.078878,-0.763750,8.192958,42.591297,-144.417465,-7.950884
444000,6.294356,-0.732626,7.996634,44.209618,-142.692276,-9.981419
448000,6.411672,-0.648829,7.915231,45.446259,-142.280060,-12.073022
452000,6.490681,-0.608127,7.948750,47.232517,-140.295334,-14.057755
456000,6.411672,-0.663194,7.893683,50.087479,-136.463272,-15.019587
460000,6.169858,-0.545878,7.565677,51.598930,-136.157928,-16.195160
464000,5.925649,-0.526724,7.450756,52.453892,-136.554871,-16.943251
468000,5.815516,-0.560243,7.302315,53.263050,-136.570129,-17.050119
472000,5.664681,-0.507571,7.196970,53.980610,-135.822052,-16.866915
476000,5.432444,-0.548272,7.060501,54.392822,-135.180817,-15.828747
480000,5.312734,-0.454898,6.897695,54.530228,-134.310593,-14.179893
484000,5.341464,-0.387861,6.787562,54.637096,-132.310593,-12.256228
488000,5.216966,-0.438139,6.555324,54.011143,-130.051056,-10.485236
492000,5.274426,-0.368707,6.359000,53.369923,-127.760971,-8.057755
496000,5.346252,-0.268151,6.155493,51.537861,-125.272423,-5.920350
500000,5.461174,-0.184354,5.908890,49.492058,-122.524330,-4.424167
504000,5.480328,-0.124498,5.779603,48.316486,-120.325851,-3.248594
508000,5.382165,-0.143652,5.554548,47.339386,-119.684631,-1.905083
512000,5.295974,-0.038307,5.102044,45.934807,-119.287689,-0.302029
516000,5.363012,0.057461,4.932055,44.347019,-120.768600,0.781940
520000,5.442020,0.160412,4.692636,42.698166,-121.760971,1.774307
524000,5.561730,0.162806,4.429273,42.240150,-123.226616,2.568200
528000,5.722142,0.225055,4.587290,42.026409,-124.844940,2.965146
532000,5.841852,0.308852,4.278439,41.263050,-126.997612,3.209421
536000,6.193800,0.258574,4.369418,40.759235,-125.486160,3.438429
540000,6.318298,0.356736,4.328717,40.362289,-126.982346,2.644536
544000,6.392519,0.476446,4.185065,39.034042,-129.760971,1.285757
548000,6.643910,0.430956,4.228160,38.148548,-130.463272,-0.332564
552000,6.617573,0.337582,4.218584,39.293587,-129.928909,-1.737144
556000,6.291962,0.390255,4.048595,39.385189,-133.608307,-3.126457
560000,6.162675,0.363919,3.950433,39.125645,-138.234253,-4.210426
564000,6.452374,0.366313,4.039018,39.034042,-139.501434,-4.332564
568000,6.550536,0.299275,4.211401,38.972973,-139.715179,-4.363098
572000,6.615179,0.404620,4.161122,39.201981,-141.028152,-4.637907
576000,6.598420,0.402226,4.067749,38.957706,-142.768616,-4.714243
580000,6.555324,0.390255,4.137180,38.194347,-142.677002,-3.844014
584000,6.576872,0.342371,4.156334,37.064579,-141.944183,-2.332564
588000,6.665458,0.359130,4.309563,35.690533,-140.005249,-0.592106
592000,6.691794,0.316035,4.254497,34.805035,-136.264801,1.774307
596000,6.782773,0.308852,4.458004,33.690533,-132.249527,3.759039
600000,7.149086,0.253785,4.295198,33.186714,-128.768616,5.087284
604000,7.522582,0.289698,4.278439,32.118011,-124.310585,4.507131
608000,7.539341,0.380678,4.029441,29.919540,-121.531960,4.018581
612000,7.359776,0.378284,3.940856,28.728701,-120.707535,3.713238
616000,7.299921,0.306458,3.991134,28.240150,-122.585396,3.835375
620000,7.517793,0.268151,4.173094,29.049311,-123.531960,3.530032
624000,7.747637,0.208296,4.268862,30.514959,-124.509064,2.888810
628000,7.711724,0.205901,4.177882,32.331753,-126.478523,1.835375
632000,7.584831,0.181959,4.074931,33.354652,-129.654114,1.530032
636000,7.441179,0.162806,4.211401,34.316486,-132.280060,1.804841
640000,7.582437,0.232238,4.165911,35.079845,-132.692276,2.552932
644000,7.704541,0.237026,4.225766,36.514961,-132.173187,3.301024
648000,7.723695,0.268151,3.974375,38.545494,-133.119751,3.636902
652000,7.455544,0.323217,3.505111,40.820305,-134.127396,4.629269
656000,7.331046,0.421380,3.095703,41.446259,-137.593033,6.155986
660000,7.347805,0.507571,2.832341,41.598930,-139.287689,8.323924
664000,7.477092,0.641646,2.676718,39.934807,-141.196091,10.339191
668000,8.018182,0.739808,2.748544,38.224884,-140.325867,11.865910
672000,8.262390,0.770933,2.614468,36.713432,-138.112122,12.446062
676000,8.372523,0.782904,2.451663,35.629463,-136.081589,13.072016
680000,8.334216,0.770933,2.454057,34.988239,-134.386932,13.148352
684000,8.370130,0.761356,2.300828,34.301220,-132.478531,12.965146
688000,8.288726,0.758962,2.274492,32.835567,-131.089218,13.239955
692000,8.104373,0.725443,2.109292,31.507326,-130.035782,13.850642
696000,7.979874,0.632069,2.126051,30.285952,-129.119751,14.919344
700000,7.843405,0.610521,2.030283,28.453890,-128.371658,16.354460
704000,8.118738,0.565032,2.202666,28.179081,-125.669365,17.988047
708000,8.171411,0.502782,2.214637,28.469158,-123.165550,19.239956
712000,8.279149,0.512359,2.121263,28.759233,-122.356392,19.255222
716000,8.291121,0.466869,1.948880,29.614197,-122.005241,19.194155
720000,8.279149,0.502782,1.877054,29.537861,-125.760971,18.155987
724000,8.537724,0.481235,1.903390,30.545494,-128.570129,16.888811
728000,8.688558,0.426168,1.843535,31.537861,-128.631210,15.591100
732000,8.741230,0.277727,1.604115,34.209614,-129.180817,13.759039
736000,8.595184,0.316035,1.098939,37.217251,-132.249527,11.362092
740000,8.310274,0.330400,0.826000,39.156181,-137.531967,9.102551
744000,8.075643,0.272939,0.490811,40.881371,-144.325867,7.194154
748000,7.852982,0.205901,0.114922,42.163815,-150.936554,5.850643
752000,7.666234,0.146046,0.093374,42.392822,-155.669373,5.499497
756000,7.570466,0.045490,-0.124498,42.056946,-158.005249,5.621635
760000,7.493851,-0.014365,-0.165200,40.835571,-157.486160,7.194154
764000,7.501034,-0.095768,-0.177171,39.797401,-153.898376,9.163619
768000,7.398083,-0.117316,-0.251391,38.347019,-149.669373,11.881176
772000,7.204153,-0.165200,-0.758962,37.018776,-146.615936,15.041482
776000,7.038953,-0.248997,-1.201889,36.591297,-143.791504,18.522398
780000,6.957550,-0.205901,-1.414973,30.118013,-142.341125,22.537666
784000,7.199365,-0.158017,-1.747767,24.285952,-141.150284,26.278124
788000,7.378930,-0.122104,-1.678335,19.675264,-140.310593,29.209421
792000,7.682993,-0.122104,-1.611298,16.408089,-138.066315,32.262856
796000,7.970297,-0.160412,-1.527501,13.705798,-134.692276,34.858276
800000,8.152257,-0.124498,-1.541866,10.713432,-132.005249,37.255222
804000,8.458714,-0.153229,-1.491588,7.675264,-131.913651,37.697971
808000,8.497022,-0.251391,-1.529895,5.644730,-132.112122,38.446064
812000,8.382100,-0.433351,-1.594538,3.873737,-132.615936,39.606369
816000,8.372523,-0.466869,-1.738190,2.560760,-134.677002,40.843010
820000,8.511387,-0.483629,-1.687912,1.003508,-134.997620,42.094917
824000,8.619126,-0.538695,-1.637634,-0.950690,-135.562500,43.316292
828000,8.664616,-0.533907,-1.740585,-2.324736,-136.875473,44.125454
832000,8.880095,-0.770933,-1.668759,-3.439240,-136.081589,45.133087
836000,9.217676,-0.828394,-0.984017,-4.110995,-131.272430,47.301025
840000,9.449914,-0.847547,-0.550666,-3.240766,-126.157913,49.194153
844000,10.086772,-0.792481,-0.213084,-2.034660,-118.570129,51.362095
848000,10.627861,-0.823605,0.057461,-1.149163,-113.486160,51.346825
852000,11.030087,-0.739808,0.181959,0.224882,-109.684631,50.781940
856000,11.245565,-0.730232,0.150835,1.003508,-105.302956,49.942245
860000,11.508927,-0.696713,0.069432,2.713432,-100.982346,49.209423
864000,11.611878,-0.660800,-0.002394,4.408089,-96.646461,49.087284
868000,11.982980,-0.521936,-0.122104,5.934806,-91.104477,49.392628
872000,12.234370,-0.351948,-0.193930,5.354653,-90.096848,50.293392
876000,12.976573,-0.299275,0.112527,6.362287,-83.089211,50.705605
880000,13.474567,-0.143652,0.174777,7.156180,-79.028145,50.293392
884000,14.041993,0.114922,0.033519,7.156180,-75.089211,49.072018
888000,14.559140,0.143652,0.009577,7.980608,-68.951805,47.316292
892000,14.781801,0.205901,-0.083797,8.896638,-64.142647,45.774307
896000,14.872781,0.306458,-0.217872,8.377554,-61.211353,43.468964
900000,15.136143,0.335188,-0.205901,7.308852,-57.562500,41.224689
904000,15.385140,0.433351,-0.193930,5.659997,-51.989979,40.171253
908000,15.497667,0.447716,-0.306458,4.514959,-47.180820,38.247589
912000,15.552734,0.557849,-0.512359,2.408089,-43.409828,36.018581
916000,15.684415,0.517148,-0.715866,0.942440,-39.104485,33.575832
920000,15.662868,0.557849,-0.572214,0.240150,-32.295322,31.591103
924000,15.512033,0.593762,-0.902614,-1.576644,-31.470896,28.308659
928000,15.878345,0.577003,-0.476446,-2.462140,-25.058683,26.751406
932000,15.926229,0.466869,-0.301669,-3.271301,-17.806774,24.049116
936000,15.765819,0.474052,-0.193930,-2.584278,-12.982347,21.591101
940000,15.660473,0.378284,-0.071826,-1.622446,-8.447996,18.904078
944000,15.315708,0.301669,-0.069432,-0.172064,-4.753339,16.720873
948000,14.911088,0.184354,0.143652,1.904272,-0.020514,15.163619
952000,14.487314,0.114922,0.112527,3.980608,6.010020,15.102551
956000,14.156915,0.196325,-0.098162,5.995875,8.010019,15.026215
960000,14.087482,0.138864,-0.210690,7.079844,9.658875,14.537665
964000,13.991714,0.179565,-0.371101,7.492058,13.826814,14.781940
968000,13.838486,0.181959,-0.459687,7.980608,18.376432,15.530032
972000,13.970167,0.205901,-0.313640,9.430989,22.010019,15.438428
976000,14.226347,0.119710,-0.150835,11.889005,25.872616,14.308658
980000,14.121001,0.296881,-0.332794,15.293585,27.674141,11.911711
984000,13.962984,0.304064,-0.543484,18.133280,27.887882,9.239955
988000,13.666103,0.380678,-0.950498,20.209616,26.468035,6.629269
992000,13.431472,0.409408,-1.185130,20.805037,25.139790,4.155986
996000,13.354857,0.476446,-1.314417,20.820303,24.101622,1.881177
1000000,13.357251,0.426168,-1.302446,20.927174,23.857347,-0.515770
1004000,13.227964,0.423774,-1.383849,22.087479,23.124523,-3.126457
1008000,12.880805,0.361524,-1.683124,22.911905,22.895515,-4.439434
1012000,12.404359,0.239420,-2.018312,22.942440,21.552004,-5.477602
1016000,11.978191,0.311246,-2.518700,21.400455,19.826813,-5.660808
1020000,11.707646,0.347159,-2.580950,16.866104,15.170325,-6.042487
1024000,11.894394,0.251391,-2.707842,15.446257,13.826814,-6.485235
1028000,11.784261,0.316035,-2.985569,14.621829,16.177958,-5.584472
1032000,11.367670,0.232238,-3.234566,11.400455,16.177958,-4.454701
1036000,10.982203,0.131681,-3.394978,7.598928,12.559638,-3.874548
1040000,11.133038,0.062249,-3.098097,4.056943,11.918416,-2.256228
1044000,11.461043,0.043096,-2.784456,0.514959,13.643607,-1.156991
1048000,11.465832,-0.045490,-2.559402,-1.286568,17.857347,-0.683709
1052000,11.489774,-0.193930,-2.039860,-3.485041,22.422234,-0.347831
1056000,11.350910,-0.349553,-1.695095,-5.256034,22.987120,-0.989052
1060000,11.190498,-0.335188,-1.709460,-6.065194,21.643608,-2.073022
1064000,11.085154,-0.402226,-1.412579,-6.859087,20.788645,-2.866915
1068000,10.821792,-0.476446,-1.417367,-7.622446,18.345898,-3.599739
1072000,10.747571,-0.584185,-1.225831,-7.362904,15.735210,-3.859281
1076000,10.919954,-0.639252,-1.012747,-6.538477,13.445134,-4.592105
1080000,11.149797,-0.667982,-0.732626,-5.622446,11.872615,-5.828747
1084000,11.145009,-0.691924,-0.567426,-4.431606,10.895515,-7.309663
1088000,11.109096,-0.644040,-0.280122,-3.439240,10.498569,-8.637908
1092000,11.231200,-0.677559,-0.191536,-1.271301,10.788646,-9.966152
1096000,11.317391,-0.766145,-0.064643,1.919539,11.124523,-12.134090
1100000,11.010934,-0.806846,-0.351948,4.621829,8.926050,-14.775312
1104000,10.433931,-0.842759,-0.869095,7.934806,5.552005,-16.179892
1108000,9.835381,-0.828394,-1.419762,10.514958,0.987119,-16.592106
1112000,9.476251,-0.735020,-1.953669,10.774501,-5.440361,-15.767678
1116000,9.603143,-0.672771,-1.951274,9.827936,-8.814408,-14.302030
1120000,9.686940,-0.653617,-1.742979,8.469157,-9.287690,-12.805846
1124000,9.782708,-0.605733,-1.651999,7.232516,-8.463263,-11.508137
1128000,9.804255,-0.512359,-1.596933,6.041677,-6.447995,-10.057755
1132000,9.706094,-0.426168,-1.644817,4.392821,-4.310591,-8.607373
1136000,9.569624,-0.265756,-1.893813,1.568394,-1.852576,-6.225693
1140000,9.543288,-0.234632,-2.015918,-1.210232,0.910783,-3.737144
1144000,9.670180,-0.040701,-1.996764,-4.202599,2.681776,-1.752411
1148000,9.935937,0.004788,-1.879448,-6.599545,4.071089,-0.286762
1152000,10.433931,0.186748,-1.905785,-7.393438,5.063455,-0.775312
1156000,10.855310,0.268151,-1.774103,-8.828553,4.361165,-2.149358
1160000,10.869676,0.201113,-1.515530,-8.034659,3.032921,-4.103556
1164000,10.752359,0.282516,-1.319205,-7.378171,-1.959446,-6.683709
1168000,10.864887,0.134075,-0.852336,-9.133897,-2.035782,-7.920350
1172000,10.857705,0.090980,-0.790087,-9.042294,-1.165553,-9.065389
1176000,10.848128,0.023942,-0.531513,-8.187331,-0.341125,-10.149358
1180000,10.745177,-0.021548,-0.555455,-6.782751,-0.722805,-11.431801
1184000,10.601525,-0.158017,-0.538695,-5.439240,-3.974713,-12.866915
1188000,10.477027,-0.203507,-0.260968,-4.324736,-5.898377,-13.660809
1192000,10.314221,-0.282516,-0.093374,-3.225499,-4.524331,-13.218060
1196000,10.220847,-0.328006,0.019154,-1.820919,-1.043415,-11.905083
1200000,10.168175,-0.251391,-0.071826,-1.240766,1.032921,-10.927984
1204000,10.307038,-0.292093,-0.052672,-0.782751,4.498569,-10.302030
1208000,10.261548,-0.351948,-0.330400,-0.874354,7.597806,-9.172258
1212000,10.208876,-0.311246,-0.524330,-0.965957,10.452767,-8.302030
1216000,10.146626,-0.260968,-0.411803,-0.935423,13.368798,-6.958518
1220000,10.089166,-0.337582,-0.574608,-1.103362,16.468035,-5.569205
1224000,10.127473,-0.304064,-0.502782,-1.179698,19.506203,-4.317297
1228000,10.280702,-0.251391,-0.675165,-0.401072,22.468035,-3.340197
1232000,10.316615,-0.215478,-1.254562,0.743966,22.864981,-3.263861
1236000,10.110714,-0.093374,-1.841141,1.324119,19.811546,-4.011953
1240000,10.017340,0.016759,-2.056619,0.194348,14.116890,-4.225693
1244000,10.242394,0.088585,-2.063802,-0.340003,8.773378,-5.233327
1248000,10.711658,0.031125,-1.752556,-3.378171,6.651241,-5.905083
1252000,10.924743,0.062249,-1.357512,-3.225499,9.979486,-6.683709
1256000,10.800244,0.081403,-1.271321,-3.759850,7.689410,-8.775312
1260000,10.704475,0.141258,-1.168370,-5.286569,6.147425,-10.027221
1264000,10.515334,-0.047884,-1.118092,-5.851454,7.292463,-10.134090
1268000,10.335769,-0.131681,-1.101333,-6.202599,8.269562,-10.011953
1272000,10.206482,-0.146046,-1.070208,-7.469774,9.429867,-9.324930
1276000,10.086772,-0.210690,-0.974440,-9.088095,9.460402,-9.019587
1280000,9.986216,-0.148441,-0.837971,-10.126263,9.185592,-8.210426
1284000,10.012551,-0.287304,-0.679953,-11.439240,10.742844,-7.233327
1288000,9.969456,-0.215478,-0.593762,-12.401073,11.964218,-6.256227
1292000,9.923966,-0.299275,-0.557849,-12.904889,14.147424,-5.263861
1296000,9.873688,-0.337582,-0.373495,-12.584277,14.651241,-4.317297
1300000,9.849746,-0.265756,-0.114922,-12.202600,15.155058,-3.569205
1304000,9.895236,-0.328006,-0.050278,-11.881988,15.857347,-2.805846
1308000,9.818622,-0.277727,-0.105345,-10.645347,16.086355,-2.424167
1312000,9.629479,-0.232238,-0.251391,-9.423973,15.552004,-1.844014
1316000,9.519346,-0.189142,-0.471658,-8.523210,13.597806,-0.851648
1320000,9.629479,-0.131681,-0.488417,-8.202599,10.498569,-0.103556
1324000,9.993398,-0.122104,-0.318429,-8.065194,10.040554,0.079650
1328000,10.273520,-0.057461,-0.155623,-7.759851,10.651241,-0.057755
1332000,10.457873,-0.014365,-0.196325,-7.103362,11.017653,-0.958518
1336000,10.508151,-0.047884,-0.165200,-6.049927,10.590172,-2.088289
1340000,10.453085,0.021548,-0.344765,-4.828553,10.101623,-3.431800
1344000,10.249578,-0.026336,-0.596156,-3.958324,9.429867,-3.996686
1348000,10.046070,0.079009,-0.861913,-3.347636,7.200860,-4.408900
1352000,10.043676,0.009577,-0.871489,-3.164430,5.857348,-4.103556
1356000,10.026917,0.031125,-0.799663,-3.622446,5.185593,-3.950884
1360000,9.976639,0.035913,-0.916979,-4.736950,5.277195,-3.370732
1364000,10.058042,0.004788,-0.931344,-6.172065,7.078722,-2.515770
1368000,9.976639,0.016759,-0.869095,-7.744583,8.162691,-1.569205
1372000,9.955091,0.055067,-0.679953,-9.439240,9.261928,-0.714243
1376000,9.931149,-0.023942,-0.524330,-10.675881,11.017653,0.339192
1380000,9.981427,-0.062249,-0.476446,-11.668247,13.231394,1.652169
1384000,9.993398,0.000000,-0.531513,-12.431607,13.658875,2.446062
1388000,10.146626,-0.067038,-0.438139,-12.477408,13.719943,2.537665
1392000,10.242394,-0.040701,-0.251391,-12.462140,13.552004,2.217055
1396000,10.441113,-0.093374,-0.153229,-12.019393,12.681775,1.499497
1400000,10.510546,-0.177171,-0.045490,-9.866721,12.269562,0.125452
1404000,10.520123,-0.174777,-0.203507,-8.904889,10.880248,-0.927984
1408000,10.491392,-0.193930,-0.265756,-7.805653,9.277195,-2.576838
1412000,10.491392,-0.294487,-0.062249,-7.133897,8.223760,-4.103556
1416000,10.441113,-0.205901,0.100556,-5.973591,7.613074,-5.492869
1420000,10.345345,-0.304064,0.172383,-4.355270,6.864982,-6.653174
1424000,10.058042,-0.395043,-0.055067,-3.423972,5.903150,-7.172258
1428000,9.844957,-0.395043,-0.148441,-2.767484,5.231394,-6.958518
1432000,9.622296,-0.502782,-0.409408,-2.385804,4.284829,-5.935617
1436000,9.528923,-0.497994,-0.505177,-2.691148,3.460402,-5.095922
1440000,9.629479,-0.452504,-0.514753,-3.576644,3.063455,-3.844014
1444000,9.753978,-0.435745,-0.318429,-4.095729,3.124524,-3.248594
1448000,9.995792,-0.409408,-0.268151,-4.416339,5.322997,-2.240961
1452000,9.976639,-0.452504,0.000000,-4.859087,7.261929,-1.813480
1456000,9.895236,-0.371101,-0.153229,-4.874354,7.063455,-1.615006
1460000,9.809045,-0.323217,-0.071826,-5.454507,7.826814,-0.668442
1464000,9.634268,-0.289698,-0.088585,-6.095729,7.032921,-0.103556
1468000,9.617508,-0.359130,0.021548,-6.660614,7.093989,1.041482
1472000,9.950302,-0.292093,0.275333,-6.691149,8.956584,2.201787
1476000,10.213664,-0.260968,0.371101,-6.294202,10.452767,2.491864
1480000,10.455479,-0.179565,0.395043,-4.904889,11.261928,1.728505
1484000,10.357317,-0.055067,0.244209,-3.454507,10.345898,0.843009
1488000,10.311827,0.028730,0.047884,-2.126262,9.155058,0.125452
1492000,10.213664,0.112527,-0.141258,-1.775118,7.170325,-0.592106
1496000,10.263943,0.141258,-0.081403,-1.423972,5.506203,-1.156991
1500000,10.307038,0.134075,0.002394,-0.920156,4.147425,-1.645541
1504000,10.235212,0.081403,0.057461,-0.202598,4.376432,-1.615006
1508000,10.295067,0.102951,0.215478,0.423356,5.796279,-1.248594
1512000,10.287885,0.143652,-0.050278,0.774501,6.758111,-1.218060
1516000,10.216059,0.134075,-0.033519,0.102745,7.231394,-0.775312
1520000,10.146626,0.134075,-0.191536,-0.263667,7.750478,-0.531037
1524000,10.232818,0.141258,-0.359130,-0.843820,8.422234,-0.500503
1528000,10.369287,0.203507,-0.644040,-1.530843,8.529103,-1.004319
1532000,10.493786,0.198719,-0.957681,-1.698782,6.987119,-1.889816
1536000,10.326192,0.169988,-1.283292,-1.439240,2.895516,-3.492869
1540000,10.268731,0.083797,-1.249773,-0.996492,-0.967079,-4.836380
1544000,10.072407,0.064643,-1.314417,-1.790385,-4.646469,-5.462335
1548000,9.945514,-0.011971,-1.031901,-3.088094,-6.112117,-5.416533
1552000,9.809045,-0.110133,-0.861913,-4.828553,-6.509064,-4.271495
1556000,9.655815,-0.201113,-0.476446,-6.813286,-5.165553,-2.790579
1560000,9.457097,-0.263362,-0.165200,-8.401072,-2.142652,-0.546304
1564000,9.287108,-0.332794,-0.069432,-9.897255,0.300096,2.155986
1568000,9.279925,-0.366313,0.014365,-11.210233,2.116890,4.812475
1572000,9.464279,-0.296881,0.155623,-11.790385,4.559639,7.499498
1576000,9.617508,-0.328006,0.270545,-12.019393,6.880249,10.079650
1580000,9.856929,-0.272939,0.294487,-12.172065,7.628340,11.667436
1584000,9.979033,-0.179565,0.347159,-12.202600,8.513836,12.980413
1588000,10.247183,-0.122104,0.387861,-12.721683,9.567271,13.667436
1592000,10.685322,-0.016759,0.469264,-13.683515,11.292462,13.972779
1596000,11.073183,-0.040701,0.665588,-13.072827,13.811546,12.934611
1600000,11.446678,0.110133,0.598550,-11.317102,14.620707,10.583467
1604000,11.676521,0.083797,0.493206,-8.416339,14.101623,7.133085
1608000,11.523293,0.134075,0.172383,-6.355270,10.025287,3.209421
1612000,11.370064,0.083797,0.131681,-4.477407,5.704677,-0.760045
1616000,11.135432,0.045490,0.423774,-3.332370,1.445134,-3.569205
1620000,11.018116,-0.074220,0.725443,-2.324736,-1.119751,-5.767678
1624000,11.015722,-0.244209,1.331176,-0.446873,-0.005247,-6.943251
1628000,10.869676,-0.328006,1.450886,1.629462,4.529104,-7.111189
1632000,10.556035,-0.335188,1.225831,3.705798,8.895515,-6.760045
1636000,9.998186,-0.409408,0.857124,4.652363,9.811546,-6.027220
1640000,9.758766,-0.397437,0.395043,4.438623,9.322997,-4.729510
1644000,9.691729,-0.347159,0.033519,3.110379,9.597806,-3.309663
1648000,9.696517,-0.332794,-0.172383,1.751600,11.002386,-1.248594
1652000,9.794679,-0.476446,-0.129287,1.507325,11.933683,0.400261
1656000,9.895236,-0.306458,-0.083797,1.858470,12.223760,1.438429
1660000,10.012551,-0.244209,-0.311246,1.950073,11.552004,2.125452
1664000,10.110714,-0.217872,-0.237026,1.201982,10.681775,2.262856
1668000,10.165780,-0.136469,-0.433351,0.652363,9.765745,2.278123
1672000,10.089166,-0.134075,-0.098162,0.087478,8.605439,2.278123
1676000,9.923966,-0.114922,0.007183,-0.278934,8.758111,2.873543
1680000,9.935937,-0.148441,0.112527,-0.660614,9.643607,3.896444
1684000,9.998186,-0.143652,0.205901,-0.736950,11.017653,4.858276
1688000,10.026917,-0.083797,0.153229,-0.553744,12.345898,5.591101
1692000,10.208876,0.021548,-0.169988,-0.614812,13.002386,6.018581
1696000,10.266336,0.002394,-0.229843,-0.645346,13.155058,5.759039
1700000,10.237606,0.062249,-0.282516,-1.256034,13.414599,5.621635
1704000,10.256760,0.119710,-0.490811,-2.340003,12.666508,5.163620
1708000,10.295067,0.160412,-0.368707,-3.240766,11.842080,4.781940
1712000,10.232818,0.102951,-0.217872,-4.217866,11.002386,4.751406
1716000,10.359711,0.098162,-0.155623,-5.011759,11.903150,4.247589
1720000,10.240001,0.098162,-0.057461,-6.278934,13.124523,4.720871
1724000,10.323798,0.076614,0.009577,-7.057561,14.773378,4.705605
1728000,10.290278,-0.019154,0.055067,-6.813286,14.697042,4.537665
1732000,10.187328,-0.011971,0.000000,-5.698782,12.376431,4.155986
1736000,10.326192,-0.105345,0.181959,-3.500308,10.605439,3.026215
1740000,10.572795,-0.026336,0.155623,-1.149163,10.116890,1.178887
1744000,10.419566,-0.035913,0.031125,0.377554,7.368799,-0.286762
1748000,10.304645,-0.088585,-0.016759,0.927172,2.895516,-2.164625
1752000,10.223241,-0.193930,0.428562,1.293585,1.017653,-3.111190
1756000,10.153810,-0.299275,0.497994,2.240149,1.689409,-3.156991
1760000,9.976639,-0.332794,0.514753,2.896638,4.529104,-2.286762
1764000,9.847352,-0.373495,0.265756,3.614195,6.391699,-1.050121
1768000,9.749189,-0.282516,-0.184354,3.263050,5.689409,-0.286762
1772000,9.739613,-0.229843,-0.371101,2.469157,4.300097,0.476597
1776000,9.782708,-0.177171,-0.620098,0.545493,2.544371,1.423162
1780000,9.986216,-0.179565,-0.538695,-0.981224,1.353531,1.697971
1784000,10.070012,-0.148441,-0.222661,-2.324736,0.635974,1.957513
1788000,10.194510,-0.196325,0.038307,-3.485041,1.445134,2.369726
1792000,10.139444,-0.179565,0.088585,-4.278934,3.582539,2.904078
1796000,9.974244,-0.208296,0.320823,-5.378171,5.796279,3.911711
1800000,9.943120,-0.260968,0.160412,-4.767485,7.582539,4.919345
1804000,9.952697,-0.117316,0.117316,-4.569011,8.391699,5.820108
1808000,9.993398,-0.172383,0.000000,-4.721683,8.468035,6.827742
1812000,10.105926,-0.102951,0.028730,-4.599545,7.307730,7.148353
1816000,10.376471,-0.107739,0.196325,-4.523210,6.284829,6.598734
1820000,10.649409,-0.014365,0.421380,-4.080462,5.307730,5.209421
1824000,10.845734,-0.064643,0.486023,-2.630080,4.483303,3.774307
1828000,10.821792,-0.040701,0.495600,-0.630080,3.765745,2.018581
1832000,10.625467,-0.050278,0.469264,1.308852,3.078722,0.598734
1836000,10.407595,-0.079009,0.328006,2.866104,2.071089,-0.271495
1840000,10.266336,-0.102951,0.237026,3.430989,1.078722,-0.546304
1844000,10.242394,-0.167594,0.129287,3.934806,0.666508,-0.592106
1848000,10.146626,-0.184354,-0.040701,3.904272,0.864982,-0.042487
1852000,10.036493,-0.210690,-0.062249,2.866104,1.490936,0.766673
1856000,10.010158,-0.272939,-0.162806,1.430989,2.498570,2.201787
1860000,10.012551,-0.167594,-0.335188,-0.202598,3.719944,2.904078
1864000,10.309433,-0.193930,-0.268151,-0.920156,4.880249,3.820108
1868000,10.443508,-0.337582,-0.414197,0.255417,6.193226,3.072016
1872000,10.295067,-0.189142,-0.895431,0.484424,5.781013,2.278123
1876000,10.149021,-0.100556,-1.283292,-1.637713,1.597806,1.942245
1880000,10.244789,-0.064643,-1.094150,-4.202599,-3.394560,0.781940
1884000,10.417171,-0.148441,-0.435745,-5.362904,-5.730438,-0.042487
1888000,10.374076,-0.244209,-0.088585,-5.530843,-6.646469,-0.668442
1892000,10.307038,-0.282516,0.193930,-5.515575,-6.325858,-0.469968
1896000,10.127473,-0.260968,0.304064,-5.210233,-5.135018,0.033849
1900000,10.065224,-0.270545,0.404620,-5.042294,-3.913644,1.117818
1904000,10.048465,-0.347159,0.399832,-4.599545,-2.799140,1.697971
1908000,10.122684,-0.289698,0.332794,-4.416339,-1.379293,2.614001
1912000,10.168175,-0.299275,0.399832,-4.156797,-0.936545,3.255223
1916000,10.376471,-0.270545,0.442927,-3.927789,-0.203721,3.911711
1920000,10.498574,-0.292093,0.299275,-3.744583,1.338264,4.140719
1924000,10.587160,-0.253785,0.280122,-3.943056,2.727577,3.972780
1928000,10.433931,-0.246603,0.220267,-4.446874,3.185592,3.636902
1932000,10.316615,-0.296881,0.169988,-5.072827,3.536737,3.591101
1936000,10.347740,-0.411803,0.301669,-5.347637,4.971852,3.316291
1940000,10.249578,-0.514753,0.438139,-5.683515,6.269562,4.033849
1944000,10.139444,-0.497994,0.596156,-5.759851,7.872615,4.675070
1948000,10.211270,-0.531513,0.739808,-5.332370,9.735210,5.224689
1952000,10.244789,-0.483629,0.859518,-4.294202,11.933683,6.079650
1956000,10.323798,-0.409408,0.852336,-2.721682,12.208493,6.094917
1960000,10.424355,-0.407014,0.677559,-1.362904,12.086355,5.850643
1964000,10.515334,-0.375890,0.536301,0.026409,12.055821,5.316291
1968000,10.591949,-0.304064,0.543484,1.186714,10.651241,4.262856
1972000,10.704475,-0.251391,0.435745,2.606562,9.872615,2.781940
1976000,10.927136,-0.193930,0.445322,3.659997,10.132157,1.209421
1980000,11.094730,-0.217872,0.577003,5.156180,11.322997,-0.714243
1984000,11.030087,-0.177171,0.169988,6.438623,11.429867,-2.561571
1988000,10.733206,-0.088585,-0.110133,7.034043,9.582539,-3.935617
1992000,10.551247,0.043096,-0.416591,6.453890,7.048188,-5.050121
1996000,10.429143,-0.004788,-0.332794,5.339386,4.941318,-5.492869
