time_us,ax,ay,az,gx,gy,gz
0,1.120486,-0.797269,8.652645,3.308852,-6.967079,-2.469968
4000,1.067814,-0.785298,8.564059,4.056943,-7.226621,-3.645541
8000,0.960075,-0.715866,8.599973,4.484425,-9.593034,-5.126457
12000,0.890643,-0.785298,8.619126,4.927173,-11.501431,-6.744777
16000,0.804452,-0.826000,8.650250,5.492058,-13.516698,-7.645541
20000,0.596156,-0.845153,8.801085,6.499691,-15.791507,-8.271495
24000,0.569820,-0.802058,8.664616,7.201982,-17.531965,-8.927984
28000,0.495600,-0.857124,8.604761,7.522593,-18.432728,-8.851648
32000,0.488417,-0.770933,8.592790,7.522593,-18.631203,-8.821114
36000,0.363919,-0.735020,8.516175,7.217249,-19.119751,-8.500503
40000,0.284910,-0.751779,8.437167,6.911905,-20.020515,-7.996686
44000,0.234632,-0.773327,8.353370,6.438623,-21.241888,-7.279129
48000,0.074220,-0.744597,8.588001,5.324119,-21.944180,-6.668441
52000,0.081403,-0.785298,8.449138,4.560760,-21.547232,-5.905083
56000,-0.088585,-0.837971,8.418014,2.972974,-21.699903,-4.561571
60000,-0.270545,-0.797269,8.441956,1.782134,-22.829676,-2.882182
64000,-0.332794,-0.849942,8.456321,0.652363,-23.654102,-1.187526
68000,-0.256180,-0.814029,8.499416,-0.401072,-24.203720,0.675070
72000,-0.134075,-0.761356,8.444349,-2.004125,-25.165552,1.957513
76000,0.220267,-0.737414,8.401254,-2.614812,-25.531965,2.140719
80000,0.450110,-0.711078,8.339005,-2.675881,-27.028149,1.804841
84000,0.553061,-0.617704,8.391677,-2.599545,-29.898378,0.598734
88000,0.888249,-0.615310,8.312668,-1.286568,-38.936546,-3.156991
92000,1.199495,-0.620098,8.836999,0.301218,-39.516697,-5.431800
96000,0.794875,-0.641646,8.851364,2.469157,-50.005249,-10.256228
100000,0.778116,-0.634463,8.997410,5.690531,-59.608299,-13.218060
104000,0.773327,-0.677559,9.263166,9.446257,-68.417458,-16.927982
108000,0.529119,-0.809240,9.337387,13.125646,-75.791504,-19.111189
112000,0.517148,-0.818817,9.550470,16.423355,-83.226616,-20.821114
116000,0.505177,-0.885855,9.607931,19.156181,-87.837303,-21.859282
120000,0.560243,-0.967257,9.742006,20.957708,-91.959442,-22.469967
124000,0.445322,-0.981623,9.749189,22.072212,-91.608299,-21.920349
128000,0.490811,-0.998382,9.844957,22.805037,-91.028145,-20.973785
132000,0.483629,-1.039083,9.696517,22.545494,-90.188454,-19.782946
136000,0.572214,-1.017536,9.643845,22.087479,-86.692268,-18.408899
140000,0.615310,-1.031901,9.548077,22.224884,-84.127380,-16.927982
144000,0.610521,-1.000776,9.325416,22.713432,-82.860207,-15.859282
148000,0.639252,-1.051055,9.085996,22.591295,-82.783867,-14.851648
152000,0.514753,-1.055843,8.777143,22.545494,-84.554863,-14.164625
156000,0.445322,-1.127669,8.473080,22.591295,-86.951805,-13.416533
160000,0.407014,-1.113304,8.355764,22.194349,-88.936539,-11.553938
164000,0.272939,-1.012747,8.087613,19.934807,-97.623566,-11.691342
168000,0.864307,-0.890643,8.231265,20.911905,-98.005241,-10.027221
172000,1.074997,-0.840365,8.104373,20.774502,-100.615929,-10.088289
176000,1.453280,-0.770933,8.070854,21.018776,-104.463257,-11.141725
180000,1.541866,-0.694318,8.166622,20.972975,-109.791504,-13.095922
184000,1.738190,-0.682347,8.245630,21.812670,-115.593033,-15.050121
188000,1.977611,-0.742203,8.386889,24.514959,-120.799133,-17.828747
192000,1.999158,-0.775721,8.317456,26.621830,-125.455627,-21.263861
196000,1.800440,-0.842759,8.173804,29.934807,-133.012878,-24.424166
200000,1.496376,-0.864307,7.829040,33.659996,-140.722809,-26.531036
204000,1.127669,-0.972046,7.671022,35.873737,-149.883118,-28.286762
208000,0.864307,-1.060631,7.393295,36.759235,-159.012878,-29.034853
212000,0.713472,-1.029507,7.211336,36.774502,-168.173187,-28.286762
216000,0.751779,-1.118092,7.168240,36.469158,-171.531967,-26.790579
220000,0.603339,-1.199495,7.402872,35.247784,-174.570129,-24.179892
224000,0.481235,-1.209072,7.469909,33.629463,-175.623566,-20.317295
228000,0.447716,-1.180341,7.659051,30.911905,-175.455627,-15.950885
232000,0.687136,-1.192312,7.838616,27.797401,-172.906021,-11.218060
236000,0.787692,-1.261744,7.888895,25.125647,-167.898376,-5.920350
240000,0.758962,-1.130063,7.762002,22.637096,-163.226624,-0.195159
244000,1.142034,-1.074997,7.630321,21.354654,-160.051056,5.255223
248000,1.467646,-1.067814,7.366959,21.049311,-155.928909,10.308658
252000,1.673547,-0.943315,6.955156,19.018776,-158.356400,13.346826
256000,2.078167,-0.816423,6.823475,18.621830,-162.799149,15.560565
260000,2.444480,-0.770933,6.715736,18.530226,-167.837311,16.476597
264000,3.055001,-0.620098,6.921637,17.919538,-172.692276,17.178886
268000,3.495534,-0.670376,7.101202,18.514959,-177.135025,16.934612
272000,4.024653,-0.603339,7.115568,20.163815,-180.936554,15.331558
276000,4.556166,-0.533907,6.998251,22.377556,-183.715179,13.194154
280000,4.984728,-0.469264,6.785168,24.362288,-188.738083,9.652169
284000,5.343858,-0.409408,6.811504,26.560760,-193.135025,5.331559
288000,5.444415,-0.466869,7.034164,28.743967,-198.264801,0.369726
292000,5.391742,-0.450110,7.074866,30.972975,-202.844940,-3.981419
296000,5.367800,-0.730232,7.180211,35.598927,-205.379303,-6.927983
300000,5.015852,-0.854730,7.151481,38.270683,-209.760971,-9.019587
304000,4.685453,-0.914585,6.880936,40.377556,-211.150284,-8.790579
308000,4.467580,-1.003170,6.825869,40.499691,-210.677002,-7.416533
312000,4.623203,-1.012747,6.861782,41.568394,-207.883118,-5.569205
316000,4.565742,-1.010353,6.545747,42.270683,-204.783875,-3.782945
320000,4.515464,-1.060631,6.445191,41.568394,-204.173187,-1.294396
324000,4.534618,-1.027112,6.224925,41.889004,-204.264801,1.743772
328000,4.805163,-0.948104,6.119579,41.980610,-204.982346,4.217055
332000,5.243302,-0.900220,5.870583,41.980610,-203.073959,6.629269
336000,5.315128,-0.888249,5.707777,41.598930,-200.280060,8.644535
340000,5.147533,-0.763750,5.391742,40.438625,-198.875473,11.407894
344000,5.458780,-0.727837,5.202600,39.644730,-197.394562,14.186520
348000,5.686229,-0.641646,5.099649,39.507324,-195.913651,16.354460
352000,5.904101,-0.493206,4.905719,39.659996,-195.684647,18.537666
356000,6.337452,-0.301669,4.747702,38.438625,-195.394562,19.972780
360000,7.036559,-0.201113,4.580108,38.667633,-193.455627,20.094917
364000,7.266402,0.004788,4.417302,38.667633,-193.241898,18.919346
368000,7.311892,0.112527,4.041412,38.743969,-195.638840,17.377361
372000,7.517793,0.215478,3.830723,39.736332,-199.073959,15.606368
376000,7.417237,0.311246,3.457227,40.285954,-204.844940,13.148352
380000,7.333440,0.213084,3.157952,41.003510,-210.997620,11.652169
384000,7.343017,0.155623,3.145981,40.789768,-216.264801,10.461329
388000,7.548918,0.035913,3.371036,42.118011,-219.272430,9.774306
392000,7.635109,0.033519,3.383007,43.644730,-219.486160,9.178886
396000,7.505822,0.023942,3.155558,44.652363,-220.707535,8.751406
400000,7.553706,0.038307,2.726996,45.339386,-220.707535,8.415527
404000,7.510611,-0.105345,2.494758,45.476791,-220.936554,8.995680
408000,7.228095,-0.158017,2.164358,44.637096,-221.898376,10.293390
412000,6.909666,-0.189142,1.980005,42.957706,-222.478531,12.675070
416000,6.919243,-0.124498,1.826776,40.453892,-222.188461,16.720873
420000,7.283162,-0.134075,1.819593,37.461525,-220.371658,19.865910
424000,7.649475,-0.079009,1.719037,35.186714,-216.661743,22.766674
428000,8.034941,-0.069432,1.460463,33.400455,-212.783875,24.736139
432000,8.147469,-0.033519,1.252167,32.545494,-210.707535,26.629269
436000,8.202535,0.000000,1.048660,30.713432,-211.516708,27.728506
440000,8.513782,0.045490,1.103727,30.759233,-210.997620,28.919346
444000,8.937555,0.193930,1.175553,29.919540,-208.493805,29.606369
448000,9.138668,0.387861,1.182736,27.659998,-205.883118,30.201788
452000,9.349358,0.397437,1.182736,25.644730,-204.646469,30.262857
456000,9.595961,0.397437,1.113304,25.446257,-204.677002,29.575834
460000,9.612720,0.344765,0.907402,24.805037,-206.997620,27.988047
464000,9.631873,0.435745,0.914585,23.293585,-209.913651,26.873545
468000,10.014946,0.421380,1.072602,22.362288,-211.898376,25.346827
472000,10.180145,0.402226,1.070208,21.522593,-212.554871,23.820108
476000,10.302250,0.509965,1.158794,18.942440,-213.257156,22.247589
480000,10.524911,0.392649,1.541866,17.232515,-212.264801,20.430796
484000,10.558430,0.234632,1.644817,16.896639,-208.906021,19.224689
488000,10.199299,0.222661,1.331176,16.179081,-205.364029,19.072018
492000,9.842564,0.325611,1.290475,13.705798,-203.364029,20.217054
496000,10.041282,0.318429,1.458069,12.148546,-199.791504,22.064383
500000,10.314221,0.313640,1.716643,11.858470,-192.585403,23.621635
504000,10.371682,0.387861,1.716643,11.797401,-183.669373,25.301025
508000,10.263943,0.442927,1.357512,10.499692,-178.127396,28.201788
512000,10.682928,0.533907,1.410185,9.721066,-176.112122,29.133085
516000,11.173739,0.596156,1.335965,9.919538,-172.722809,29.484230
520000,11.415554,0.636858,1.355118,10.270684,-169.684647,29.697971
524000,11.647791,0.569820,1.345541,11.308852,-167.715179,28.965147
528000,11.923124,0.634463,1.359907,11.827936,-165.806778,28.064383
532000,12.033257,0.509965,1.156399,12.530226,-162.142654,27.239956
536000,11.990162,0.588974,0.976834,10.652364,-159.333496,26.308659
540000,12.136209,0.569820,0.991199,8.789768,-156.234253,24.980413
544000,12.610260,0.574608,1.180341,7.614195,-151.562500,23.224689
548000,12.837709,0.505177,1.436521,7.324119,-142.677002,21.575834
552000,12.627020,0.418985,1.623269,7.522593,-133.394562,21.087284
556000,12.418724,0.349553,1.738190,6.988241,-124.677002,20.949881
560000,12.124237,0.251391,1.709460,7.003509,-116.325851,21.148354
564000,11.982980,0.232238,1.450886,6.408089,-107.516693,22.949881
568000,11.827356,0.280122,0.974440,4.377554,-100.142647,24.507132
572000,11.686098,0.354342,0.641646,1.812669,-94.051048,25.957514
576000,11.676521,0.469264,0.402226,-2.370538,-89.302956,26.934612
580000,11.896789,0.483629,0.469264,-6.126263,-83.333488,27.865910
584000,12.107478,0.411803,0.689530,-8.965958,-78.081581,28.278124
588000,12.416330,0.447716,0.627281,-10.904889,-71.226616,28.094917
592000,12.734758,0.471658,0.514753,-11.622446,-65.196083,27.026215
596000,12.983756,0.507571,0.490811,-11.927790,-60.081585,24.751406
600000,13.125013,0.529119,0.390255,-11.118629,-54.967079,22.003315
604000,12.832921,0.586579,0.129287,-12.538476,-54.081585,18.690338
608000,12.780249,0.670376,0.098162,-10.798018,-51.257156,16.827742
612000,12.911930,0.562637,0.409408,-10.675881,-48.356392,13.865910
616000,12.897565,0.538695,0.663194,-8.904889,-44.554867,11.056749
620000,12.758701,0.507571,0.658405,-4.767485,-39.989979,8.675070
624000,12.411542,0.608127,0.486023,-2.217866,-35.516697,7.377360
628000,11.968615,0.579397,0.172383,-0.813286,-33.241890,6.583467
632000,11.892000,0.691924,0.002394,0.118012,-33.089218,5.316291
636000,12.100295,0.600945,0.033519,1.950073,-31.913645,4.186521
640000,11.920731,0.603339,-0.450110,4.530226,-28.768606,2.934612
644000,11.856087,0.696713,-0.591368,6.850837,-26.600668,2.537665
648000,12.004527,0.663194,-0.548272,8.484425,-21.119751,2.278123
652000,12.004527,0.751779,-0.718261,9.721066,-14.295324,2.568200
656000,11.853693,0.754174,-1.053449,10.133280,-8.753339,2.751406
660000,11.645397,0.744597,-1.158794,9.675264,-3.791507,3.530032
664000,11.686098,0.826000,-1.448492,8.805036,2.742844,5.301024
668000,11.657368,0.763750,-1.759738,8.469157,11.017653,7.362093
672000,11.700463,0.931344,-2.149993,5.858470,15.704676,9.010947
676000,12.102690,1.132457,-2.255338,3.125646,20.422234,9.713238
680000,12.452243,1.295263,-2.492364,-0.736950,23.414600,9.163619
684000,12.883200,1.197101,-2.516306,-3.378171,25.231394,6.736139
688000,12.840104,1.175553,-2.468422,-5.851454,24.406965,3.575833
692000,12.926295,1.161188,-2.169147,-7.225499,21.032921,-0.531037
696000,13.196839,0.897826,-1.810017,-5.668247,17.918417,-5.813479
700000,12.873623,0.778116,-1.819593,-5.729317,14.834447,-10.744778
704000,12.322956,0.457293,-1.874660,-5.362904,10.513836,-14.821114
708000,11.599907,0.155623,-1.704672,-5.393438,4.987119,-17.721876
712000,11.420342,-0.150835,-1.036689,-5.271301,2.391699,-19.660807
716000,10.800244,-0.517148,-0.804452,-5.454507,2.987119,-20.164623
720000,10.125079,-0.679953,-0.598550,-6.110995,5.658875,-18.164623
724000,9.449914,-0.914585,-0.488417,-7.759851,9.139791,-14.164625
728000,9.208099,-1.120486,-0.584185,-8.782751,13.781012,-9.309663
732000,8.944737,-1.182736,-0.557849,-9.454507,17.826813,-4.195159
736000,8.822633,-1.237802,-0.778116,-10.294202,19.277195,0.904078
740000,8.971074,-1.235408,-0.823605,-10.981225,19.307730,5.911711
744000,9.552865,-0.998382,-0.871489,-12.095729,18.834448,9.545299
748000,10.572795,-0.938527,-0.598550,-12.355271,19.979485,10.247588
752000,11.097125,-0.833182,-0.476446,-10.706415,23.246660,9.759039
756000,11.109096,-0.730232,-0.617704,-9.164431,23.277195,9.239955
760000,11.073183,-0.569820,-0.770933,-7.790385,20.971851,7.636902
764000,11.176133,-0.620098,-0.885855,-6.248401,17.032921,5.438429
768000,11.154586,-0.519542,-1.012747,-5.072827,12.483302,3.346826
772000,11.068395,-0.617704,-1.017536,-4.431606,7.735211,1.301024
776000,10.886436,-0.514753,-0.814029,-4.248401,3.307730,-0.393632
780000,10.984597,-0.584185,-0.514753,-5.668247,-0.646469,-2.210426
784000,11.207258,-0.656011,-0.490811,-4.675881,1.185592,-3.447068
788000,10.965444,-0.644040,-0.821211,-3.790385,2.452768,-4.454701
792000,10.651803,-0.761356,-0.940921,-4.156797,0.422234,-4.989052
796000,10.536881,-0.758962,-0.883460,-3.943056,-1.944179,-5.248594
800000,10.632649,-0.854730,-0.852336,-3.454507,-3.822041,-5.538671
804000,10.623073,-0.921768,-0.723049,-2.904888,-5.104484,-5.935617
808000,10.539276,-0.952892,-0.679953,-2.172064,-5.638835,-6.317297
812000,10.362105,-0.912191,-0.718261,-1.775118,-5.760972,-6.393632
816000,10.187328,-0.900220,-0.816423,-2.446873,-5.302957,-5.691342
820000,10.103531,-0.902614,-0.782904,-3.561377,-5.135018,-4.760045
824000,10.156203,-0.809240,-0.723049,-4.752217,-4.234255,-3.538671
828000,10.029311,-0.761356,-0.713472,-6.248401,-3.180820,-2.424167
832000,10.034100,-0.732626,-0.701501,-7.500309,-2.005247,-1.111190
836000,9.938332,-0.658405,-0.766145,-8.538477,-0.860209,0.476597
840000,9.801862,-0.600945,-0.766145,-10.538477,0.147424,2.888810
844000,9.794679,-0.557849,-0.634463,-12.355271,0.971852,4.720871
848000,10.000581,-0.507571,-0.586579,-13.943057,2.941318,7.102551
852000,10.172963,-0.342371,-0.517148,-15.347636,7.063455,9.423162
856000,10.412383,-0.318429,-0.560243,-17.179697,10.803913,11.026215
860000,10.714052,-0.208296,-0.385466,-18.446873,13.399332,11.239955
864000,10.888829,-0.076614,-0.169988,-18.370537,14.376431,10.461329
868000,11.317391,-0.014365,0.088585,-17.027025,13.887882,8.720871
872000,11.719617,0.004788,0.308852,-13.973592,12.406966,5.041482
876000,11.597513,-0.047884,0.438139,-10.950690,9.155058,1.026215
880000,11.202470,-0.117316,0.529119,-7.378171,4.620707,-2.805846
884000,11.001357,-0.191536,0.967257,-4.538477,0.406966,-5.615006
888000,10.817003,-0.237026,1.278504,-1.836186,0.361165,-6.897449
892000,10.864887,-0.363919,1.223437,1.446256,1.933684,-7.462335
896000,10.685322,-0.478840,0.723049,3.003508,3.613073,-7.981419
900000,10.486604,-0.526724,0.301669,3.766867,3.216127,-8.439434
904000,10.218452,-0.483629,-0.313640,3.354653,1.948951,-8.073022
908000,10.168175,-0.533907,-0.727837,1.904272,1.490936,-7.111189
912000,10.187328,-0.442927,-0.885855,0.408088,3.139791,-5.599739
916000,10.249578,-0.416591,-0.933739,-2.538476,5.368799,-3.935617
920000,10.503363,-0.366313,-0.943315,-5.744583,9.521470,-2.454701
924000,10.369287,-0.239420,-1.063026,-8.660614,13.704676,-0.515770
928000,10.316615,-0.179565,-1.065420,-12.187331,15.719944,1.331558
932000,10.419566,-0.153229,-0.919373,-15.057561,16.529104,2.049116
936000,10.426748,-0.083797,-0.586579,-17.530842,16.941317,2.965146
940000,10.658986,0.011971,-0.174777,-18.630079,17.582539,3.194154
944000,11.279084,0.069432,0.332794,-17.668247,19.185593,2.033848
948000,11.650186,-0.021548,0.567426,-14.660613,21.017653,-0.897449
952000,11.434708,0.004788,0.610521,-11.317102,20.391699,-4.363098
956000,11.063606,-0.062249,0.656011,-8.401072,16.819180,-6.897449
960000,10.678140,-0.184354,0.766145,-5.607179,12.864982,-9.080656
964000,10.441113,-0.225055,0.981623,-2.645346,11.002386,-10.011953
968000,10.175357,-0.490811,1.063026,0.148546,11.322997,-9.844014
972000,9.727641,-0.459687,0.837971,2.148547,11.490935,-9.309663
976000,9.552865,-0.464475,0.584185,3.140913,11.658875,-7.599739
980000,9.682152,-0.459687,0.459687,3.705798,12.819180,-6.103556
984000,9.916783,-0.433351,0.411803,3.675264,15.903149,-4.729510
988000,9.847352,-0.409408,0.162806,3.308852,18.376432,-3.615006
992000,9.708488,-0.395043,0.114922,2.698165,19.307730,-2.515770
996000,9.696517,-0.330400,-0.165200,1.965340,19.490936,-1.279129
1000000,9.859323,-0.318429,-0.146046,1.629462,19.109257,-0.393632
1004000,10.290278,-0.186748,-0.411803,2.514959,19.460402,-0.546304
1008000,10.383653,-0.110133,-0.574608,2.591295,18.605440,-1.477602
1012000,10.208876,-0.083797,-0.624887,1.919539,15.964218,-2.912716
1016000,10.115502,-0.114922,-0.538695,1.339386,12.956584,-4.027220
1020000,9.926360,-0.162806,-0.418985,0.667630,11.429867,-4.561571
1024000,9.703699,-0.179565,-0.217872,0.209615,11.689409,-4.011953
1028000,9.344569,-0.294487,-0.069432,-0.477408,12.559638,-2.546304
1032000,9.157822,-0.256180,-0.141258,-1.439240,13.643607,-0.637907
1036000,9.119514,-0.344765,-0.337582,-2.355270,14.345898,1.499497
1040000,8.906430,-0.347159,-0.476446,-3.546110,12.895515,3.530032
1044000,9.212888,-0.268151,-0.682347,-3.775118,10.926050,5.407895
1048000,9.639056,-0.028730,-0.634463,-5.530843,10.132157,6.247589
1052000,10.242394,-0.117316,-0.359130,-6.095729,10.086355,5.957513
1056000,10.522516,-0.069432,-0.160412,-6.431606,10.147424,4.598734
1060000,10.474632,-0.086191,0.038307,-5.912522,8.254294,2.598734
1064000,10.275913,-0.100556,-0.011971,-5.042294,7.384066,1.789574
1068000,10.149021,-0.067038,0.035913,-5.072827,5.857348,1.224688
1072000,10.376471,-0.100556,0.248997,-5.027026,4.345898,0.690337
1076000,10.565612,-0.069432,0.296881,-4.049927,4.529104,-0.088289
1080000,10.649409,-0.021548,0.316035,-3.851454,5.261929,-0.897449
1084000,10.661380,-0.011971,0.320823,-3.668247,6.071089,-1.294396
1088000,10.673351,0.007183,0.404620,-3.775118,5.857348,-1.889816
1092000,10.668563,0.023942,0.430956,-3.469774,6.773379,-2.240961
1096000,10.630256,-0.009577,0.246603,-3.698782,7.872615,-1.874548
1100000,10.352529,-0.035913,0.040701,-4.187331,8.437500,-1.844014
1104000,10.086772,-0.057461,-0.021548,-5.439240,8.468035,-1.141724
1108000,10.093954,-0.055067,-0.040701,-6.492675,8.116890,-0.302029
1112000,10.101137,-0.150835,-0.057461,-7.546110,9.613073,1.010948
1116000,10.031705,-0.052672,-0.011971,-8.584278,11.200859,2.491864
1120000,10.390836,-0.062249,-0.079009,-8.874354,11.246661,3.194154
1124000,10.745177,0.100556,-0.272939,-8.370538,12.193226,2.812474
1128000,10.728417,0.047884,-0.395043,-9.133897,11.277195,1.682703
1132000,10.706870,0.014365,-0.509965,-9.744583,9.582539,0.766673
1136000,10.673351,0.052672,-0.265756,-10.721683,6.605440,-0.561571
1140000,10.536881,-0.098162,0.088585,-11.225499,5.338264,-1.126457
1144000,10.522516,-0.198719,0.502782,-10.843820,6.101623,-1.294396
1148000,10.661380,-0.323217,1.091756,-9.530843,8.208493,-1.233327
1152000,10.864887,-0.359130,1.187524,-7.546110,10.605439,-2.775312
1156000,10.876859,-0.450110,1.058237,-5.286569,11.979486,-4.179892
1160000,10.551247,-0.426168,0.754174,-3.240766,11.078722,-5.706609
1164000,10.189722,-0.478840,0.651223,-1.698782,7.826814,-6.668441
1168000,10.125079,-0.600945,0.821211,-0.752217,5.246661,-7.202793
1172000,9.959879,-0.706290,0.888249,0.606562,4.300097,-6.897449
1176000,9.878476,-0.718261,0.806846,1.232516,5.445135,-6.042487
1180000,9.789890,-0.749385,0.521936,0.896638,7.307730,-5.279129
1184000,9.746795,-0.857124,0.268151,-0.141530,8.681775,-4.393632
1188000,9.473856,-0.830788,-0.143652,-0.721682,9.353531,-2.821113
1192000,9.485827,-0.766145,-0.447716,-1.912522,9.048187,-1.752411
1196000,9.746795,-0.751779,-0.442927,-3.530843,8.193226,-0.775312
1200000,9.940725,-0.646434,-0.280122,-4.965958,7.872615,-0.210426
1204000,10.058042,-0.648829,-0.057461,-5.637713,8.697042,0.125452
1208000,10.180145,-0.524330,0.126893,-5.897255,9.903150,0.598734
1212000,10.244789,-0.533907,0.375890,-6.401072,11.032920,0.583467
1216000,10.177752,-0.454898,0.471658,-6.233133,11.903150,0.720871
1220000,10.160992,-0.390255,0.524330,-6.049927,12.697042,1.209421
1224000,10.115502,-0.397437,0.735020,-5.576645,12.956584,1.820108
1228000,10.053253,-0.354342,0.742203,-4.721683,12.498569,2.430795
1232000,10.153810,-0.260968,0.780510,-4.141530,11.964218,3.255223
1236000,10.223241,-0.217872,0.773327,-3.515576,12.147424,3.682703
1240000,10.393229,-0.098162,0.624887,-2.538476,12.529103,4.064383
1244000,10.292673,-0.095768,0.545878,-2.233133,12.605439,4.430795
1248000,10.565612,-0.114922,0.368707,-2.019392,12.910783,3.988047
1252000,10.651803,0.000000,0.335188,-2.294202,13.261928,3.743773
1256000,10.651803,0.031125,0.275333,-3.118629,13.032920,2.720871
1260000,10.481815,0.067038,0.253785,-4.156797,11.597806,1.591100
1264000,10.481815,0.007183,0.483629,-4.370538,12.239027,1.759039
1268000,10.223241,-0.016759,0.421380,-4.691149,12.819180,2.049116
1272000,10.292673,0.052672,0.270545,-5.072827,11.811546,2.461329
1276000,10.651803,0.088585,0.409408,-5.347637,8.803913,0.888810
1280000,10.778696,0.074220,0.368707,-4.324736,7.536737,-1.019587
1284000,10.611102,-0.047884,0.296881,-3.118629,4.803913,-2.866915
1288000,10.381259,-0.067038,0.225055,-2.355270,1.307730,-4.378365
1292000,10.199299,-0.124498,0.502782,-2.095728,-1.822041,-5.294395
1296000,9.959879,-0.174777,0.603339,-1.515576,-2.677003,-5.233327
1300000,9.753978,-0.306458,0.620098,-1.256034,-1.791507,-4.225693
1304000,9.612720,-0.366313,0.445322,-1.988858,0.086356,-2.775312
1308000,9.631873,-0.433351,0.304064,-2.813286,2.437501,-1.111190
1312000,9.895236,-0.423774,0.318429,-3.149163,4.559639,-0.286762
1316000,9.971850,-0.430956,0.148441,-3.423972,6.895516,0.339192
1320000,9.964667,-0.421380,0.146046,-3.943056,7.750478,0.308658
1324000,9.931149,-0.440533,0.124498,-4.538477,6.574905,0.522398
1328000,10.007763,-0.457293,0.229843,-4.630079,4.926051,0.094917
1332000,10.074800,-0.538695,0.268151,-4.095729,3.552005,-0.225693
1336000,9.988609,-0.502782,0.184354,-3.836186,2.727577,-0.256228
1340000,9.821015,-0.452504,0.318429,-4.034659,1.857348,0.094917
1344000,9.902418,-0.514753,0.447716,-4.401072,1.048188,0.186520
1348000,10.026917,-0.574608,0.634463,-4.324736,1.979486,0.568200
1352000,10.043676,-0.512359,0.758962,-4.416339,2.849715,0.995681
1356000,10.012551,-0.557849,0.720655,-4.263667,3.887883,1.468963
1360000,9.945514,-0.433351,0.663194,-4.477407,5.552005,2.247589
1364000,9.892841,-0.414197,0.488417,-4.065194,7.017653,3.117818
1368000,9.995792,-0.416591,0.486023,-3.423972,7.277195,3.652169
1372000,10.072407,-0.354342,0.500388,-2.874354,7.155058,3.194154
1376000,10.002975,-0.301669,0.474052,-2.782751,6.177959,3.652169
1380000,10.129868,-0.301669,0.490811,-2.721682,5.567272,3.697971
1384000,10.058042,-0.284910,0.612916,-3.011759,6.727577,4.079650
1388000,9.988609,-0.342371,0.684742,-3.530843,7.582539,4.812475
1392000,9.950302,-0.237026,0.687136,-4.278934,8.681775,5.865910
1396000,10.259154,-0.260968,0.557849,-4.584278,9.796279,6.568200
1400000,10.407595,-0.158017,0.533907,-4.706415,10.162691,6.415528
1404000,10.491392,-0.134075,0.359130,-4.080462,8.926050,5.453696
1408000,10.560823,-0.052672,0.282516,-3.729316,6.116890,4.384994
1412000,10.790668,-0.088585,0.383072,-3.775118,4.513837,2.720871
1416000,10.673351,-0.016759,0.517148,-3.820919,4.529104,1.530032
1420000,10.512939,-0.122104,0.694318,-4.355270,5.109257,0.858276
1424000,10.280702,-0.150835,0.821211,-4.233133,6.315363,1.178887
1428000,10.010158,-0.205901,0.964863,-4.172065,8.544371,2.278123
1432000,9.947908,-0.169988,0.938527,-4.721683,11.170325,3.881177
1436000,10.218452,-0.079009,0.974440,-4.996491,13.490935,4.705605
1440000,10.548853,-0.181959,0.811634,-4.355270,15.994753,4.339192
1444000,10.656591,-0.150835,0.543484,-2.706415,16.391699,3.759039
1448000,10.508151,-0.158017,0.407014,-1.210232,13.429867,2.659803
1452000,10.649409,-0.198719,0.201113,0.682898,9.811546,1.346826
1456000,10.625467,-0.208296,0.174777,1.049310,7.124524,-0.347831
1460000,10.534488,-0.208296,0.337582,0.362287,5.582539,-1.813480
1464000,10.407595,-0.330400,0.521936,-0.263667,5.933684,-2.256228
1468000,10.019734,-0.481235,0.837971,0.056943,9.063455,-1.584472
1472000,9.670180,-0.553061,0.919373,-0.172064,11.979486,0.339192
1476000,9.356541,-0.572214,0.818817,-1.347636,13.582539,2.720871
1480000,9.370906,-0.586579,0.826000,-2.736950,14.926050,5.362093
1484000,9.828198,-0.543484,0.955287,-3.072828,18.635973,7.591100
1488000,10.309433,-0.435745,0.809240,-3.133896,21.307730,8.323924
1492000,10.508151,-0.397437,0.402226,-3.103362,20.284828,7.850643
1496000,10.572795,-0.380678,0.325611,-2.675881,17.842081,7.087284
1500000,10.702082,-0.260968,0.208296,-2.523209,15.597805,5.224689
1504000,10.838552,-0.213084,0.117316,-3.652980,12.987119,3.636902
1508000,10.848128,-0.260968,0.363919,-4.110995,13.261928,1.896444
1512000,10.603919,-0.246603,0.579397,-4.752217,12.910783,0.888810
1516000,10.390836,-0.268151,0.837971,-5.866721,11.658875,0.155986
1520000,10.381259,-0.325611,1.010353,-5.897255,12.361164,-0.179892
1524000,10.500969,-0.258574,1.151611,-5.408706,12.773378,-0.592106
1528000,10.426748,-0.210690,1.012747,-4.645347,12.819180,-1.615006
1532000,10.405201,-0.287304,1.027112,-3.164430,12.208493,-2.485235
1536000,10.266336,-0.344765,0.964863,-1.943056,8.956584,-3.324930
1540000,10.357317,-0.277727,0.869095,-0.324736,7.322997,-4.485235
1544000,10.242394,-0.292093,0.926556,0.560760,5.948951,-4.943251
1548000,10.125079,-0.332794,0.962469,1.095111,5.048188,-5.233327
1552000,10.034100,-0.332794,0.873884,1.125646,4.742845,-5.416533
1556000,9.914390,-0.325611,0.749385,0.606562,6.803913,-4.622640
1560000,9.718064,-0.359130,0.687136,-0.248400,7.445135,-3.966152
1564000,9.569624,-0.363919,0.658405,-0.340003,6.101623,-3.218060
1568000,9.684546,-0.344765,0.742203,-0.599545,5.521471,-2.164625
1572000,9.804255,-0.313640,0.646434,-0.569010,6.926051,-1.218060
1576000,9.813833,-0.311246,0.687136,-1.103362,7.719944,-0.424167
1580000,9.914390,-0.328006,0.701501,-1.561377,8.468035,0.125452
1584000,9.981427,-0.347159,0.770933,-1.027026,9.674142,0.308658
1588000,9.931149,-0.332794,0.667982,-1.118629,9.811546,0.186520
1592000,9.883265,-0.260968,0.593762,-1.485041,9.903150,0.369726
1596000,9.935937,-0.301669,0.610521,-1.668247,9.414599,0.461329
1600000,9.998186,-0.301669,0.557849,-1.485041,8.513836,0.552933
1604000,10.046070,-0.220267,0.442927,-1.088094,6.987119,0.110184
1608000,10.220847,-0.232238,0.488417,-0.935423,4.300097,-0.927984
1612000,10.340557,-0.148441,0.505177,-0.691148,2.376432,-2.256228
1616000,10.402806,-0.179565,0.514753,-0.538476,1.216127,-3.324930
1620000,10.316615,-0.198719,0.627281,-0.324736,0.910783,-4.363098
1624000,10.275913,-0.287304,0.665588,-0.187331,1.292463,-5.126457
1628000,10.115502,-0.349553,0.744597,-0.691148,2.010020,-5.279129
1632000,9.787497,-0.344765,0.744597,-1.164430,3.109257,-4.882182
1636000,9.634268,-0.433351,0.785298,-2.309469,4.788646,-3.798213
1640000,9.447520,-0.430956,0.826000,-3.332370,6.116890,-1.844014
1644000,9.239224,-0.450110,0.605733,-4.263667,7.231394,0.094917
1648000,9.306262,-0.335188,0.766145,-5.607179,7.842081,2.705604
1652000,9.528923,-0.330400,0.859518,-6.584278,8.574905,4.736139
1656000,9.825804,-0.217872,0.727837,-6.889622,9.781012,5.942245
1660000,9.979033,-0.100556,0.756568,-7.240767,10.422234,6.766673
1664000,10.266336,-0.052672,0.790087,-7.469774,9.811546,6.522398
1668000,10.290278,0.033519,0.806846,-6.446874,7.521471,6.247589
1672000,10.455479,0.198719,0.780510,-5.744583,5.246661,5.591101
1676000,10.982203,0.220267,0.742203,-4.798018,3.048188,3.255223
1680000,11.317391,0.344765,0.763750,-2.843820,0.712310,-0.179892
1684000,11.247959,0.351948,0.866701,-1.423972,-2.783873,-3.355464
1688000,11.252748,0.229843,0.794875,0.545493,-6.310591,-6.958518
1692000,11.097125,0.256180,1.072602,2.056943,-8.310591,-9.660809
1696000,10.874464,0.126893,1.115698,3.339386,-9.486164,-11.752412
1700000,10.577583,0.079009,0.962469,4.591295,-10.157920,-13.630274
1704000,10.256760,-0.026336,0.902614,5.354653,-10.478530,-14.225694
1708000,9.763555,-0.172383,0.694318,5.492058,-11.806774,-13.889816
1712000,9.464279,-0.217872,0.435745,4.866104,-14.218988,-12.546305
1716000,9.452309,-0.335188,0.337582,3.156180,-12.982347,-10.637908
1720000,9.435549,-0.383072,0.098162,0.728699,-10.783874,-8.195159
1724000,9.272743,-0.366313,0.021548,-2.233133,-8.753339,-5.630273
1728000,9.258378,-0.351948,-0.079009,-5.347637,-7.180820,-2.836380
1732000,9.263166,-0.450110,-0.033519,-8.996491,-6.127385,-0.164625
1736000,9.452309,-0.548272,0.268151,-11.301835,-0.875476,3.285757
1740000,9.481039,-0.569820,0.354342,-13.240767,1.765745,5.514765
1744000,9.615114,-0.543484,0.385466,-14.538476,2.910783,7.346826
1748000,9.739613,-0.591368,0.538695,-15.622445,2.788646,8.247588
1752000,9.998186,-0.536301,0.684742,-16.736948,2.116890,8.598734
1756000,10.285490,-0.426168,1.034295,-16.278934,1.170325,8.186520
1760000,10.647015,-0.452504,1.187524,-14.736949,-0.615934,6.568200
1764000,11.101913,-0.430956,1.333570,-12.340003,-3.791507,3.468963
1768000,11.137826,-0.452504,1.589750,-9.103362,-7.119751,0.278123
1772000,10.917560,-0.512359,1.673547,-5.683515,-10.692270,-3.034854
1776000,10.757148,-0.560243,1.716643,-2.569010,-13.959446,-4.882182
1780000,10.579977,-0.584185,1.900996,-0.019392,-15.974713,-6.897449
1784000,10.354922,-0.708684,1.831564,2.530226,-16.554867,-7.782945
1788000,10.314221,-0.775721,1.738190,4.163814,-15.852576,-7.721877
1792000,10.228029,-0.732626,1.618480,5.110379,-12.936545,-7.782945
1796000,10.249578,-0.814029,1.522712,5.461524,-8.631202,-6.989052
1800000,10.002975,-0.725443,1.328782,4.896638,-7.226621,-6.454701
1804000,10.065224,-0.778116,1.154005,4.163814,-4.631201,-5.737144
1808000,10.089166,-0.744597,0.986411,3.308852,-2.142652,-4.531037
1812000,10.084377,-0.629675,0.735020,2.056943,-0.051049,-3.447068
1816000,10.084377,-0.526724,0.509965,0.881371,0.559638,-2.698976
1820000,10.180145,-0.433351,0.320823,-0.782751,-0.051049,-2.500503
1824000,10.201694,-0.411803,0.385466,-2.309469,-0.035782,-2.103556
1828000,10.249578,-0.399832,0.620098,-3.194965,-0.051049,-1.752411
1832000,10.599131,-0.371101,0.900220,-3.683514,1.124524,-1.615006
1836000,10.776301,-0.306458,0.895431,-3.515576,2.880249,-1.950884
1840000,10.678140,-0.253785,0.893037,-3.836186,2.162692,-2.973785
1844000,10.551247,-0.292093,0.909797,-3.423972,1.521470,-3.462335
1848000,10.558430,-0.203507,0.873884,-3.164430,0.651241,-4.256228
1852000,10.685322,-0.131681,0.857124,-2.553744,-0.677003,-5.156991
1856000,10.673351,-0.165200,0.924162,-1.576644,-2.646469,-6.485235
1860000,10.556035,-0.191536,0.826000,-1.118629,-3.852576,-6.989052
1864000,10.508151,-0.205901,0.907402,-0.691148,-4.692270,-7.615006
1868000,10.398018,-0.260968,0.842759,-1.271301,-4.844942,-8.347831
1872000,10.240001,-0.342371,0.933739,-1.072828,-3.745705,-8.011953
1876000,9.959879,-0.332794,0.814029,-1.317102,-1.669369,-7.111189
1880000,9.777920,-0.342371,0.768539,-1.836186,0.559638,-5.492869
1884000,9.629479,-0.373495,0.610521,-2.278934,2.208493,-3.660808
1888000,9.548077,-0.356736,0.402226,-3.668247,3.384066,-1.721877
1892000,9.464279,-0.287304,0.495600,-5.317102,4.177959,0.644536
1896000,9.667787,-0.332794,0.615310,-6.904889,5.338264,1.713238
1900000,10.223241,-0.189142,0.713472,-7.362904,8.742844,2.873543
1904000,10.445902,-0.165200,0.782904,-6.614813,10.086355,2.446062
1908000,10.457873,-0.081403,0.612916,-5.912522,8.788646,1.362093
1912000,10.553641,-0.069432,0.773327,-5.088095,5.903150,0.094917
1916000,10.735600,-0.026336,0.735020,-4.126263,2.529104,-1.691342
1920000,10.884041,0.067038,0.912191,-2.874354,1.658875,-3.691342
1924000,10.663774,0.043096,1.280898,-0.859087,-0.722805,-5.309663
1928000,10.625467,-0.074220,1.534683,1.736333,-2.585400,-6.897449
1932000,10.649409,-0.100556,1.692701,3.766867,-2.081583,-7.905083
1936000,10.453085,-0.138864,1.462857,6.087478,-0.982347,-8.286762
1940000,10.287885,-0.184354,1.086968,7.675264,-0.432728,-8.973785
1944000,10.026917,-0.217872,0.720655,7.797401,-1.516698,-8.775312
1948000,9.969456,-0.205901,0.675165,7.171447,-3.302957,-8.363098
1952000,9.900024,-0.201113,0.837971,6.728699,-4.295324,-7.950884
1956000,9.991004,-0.256180,0.785298,6.240149,-3.791507,-7.263861
1960000,10.017340,-0.296881,0.696713,4.942440,-2.722805,-6.714243
1964000,10.127473,-0.165200,0.550666,3.201982,-1.531965,-6.408899
1968000,9.995792,-0.275333,0.598550,1.507325,-1.058682,-6.393632
1972000,9.945514,-0.294487,0.665588,0.377554,-1.547232,-5.920350
1976000,9.943120,-0.306458,0.627281,-0.630080,-0.814408,-4.897449
1980000,9.782708,-0.256180,0.521936,-1.515576,-0.356392,-3.584472
1984000,9.792285,-0.325611,0.517148,-2.736950,-0.692270,-2.897449
1988000,9.909601,-0.282516,0.591368,-3.820919,0.223760,-1.798213
1992000,9.854534,-0.332794,0.749385,-4.431606,0.758111,-1.126457
1996000,9.801862,-0.332794,0.766145,-4.507942,1.384066,-0.302029
