time_us,ax,ay,az,gx,gy,gz
0,0.251391,-1.616086,8.236053,2.545493,-12.707538,0.598734
4000,0.328006,-1.608904,8.188169,2.133279,-13.425095,0.552933
8000,0.354342,-1.637634,8.305486,1.797401,-13.898377,0.186520
12000,0.313640,-1.685518,8.427590,1.919539,-14.615934,-0.240961
16000,0.234632,-1.651999,8.322245,2.316485,-15.394561,-0.439434
20000,0.189142,-1.613692,8.394072,2.270684,-16.371660,-0.683709
24000,0.186748,-1.685518,8.420407,2.469157,-17.425095,-0.531037
28000,0.155623,-1.714248,8.461109,2.545493,-18.280056,-0.576838
32000,0.050278,-1.731008,8.494628,2.743967,-19.394560,-0.439434
36000,0.095768,-1.709460,8.571242,3.415722,-21.073950,-0.363098
40000,0.098162,-1.819593,8.583213,3.797401,-22.203720,-0.363098
44000,0.193930,-1.776498,8.645462,4.224883,-22.875477,-0.485235
48000,0.225055,-1.781286,8.695741,4.835569,-23.394560,-0.439434
52000,0.270545,-1.726219,8.525752,5.171447,-23.425095,-0.943251
56000,0.256180,-1.680730,8.384495,5.263051,-24.234255,-1.095922
60000,0.100556,-1.685518,8.245630,4.469157,-27.058683,-1.370732
64000,0.057461,-1.683124,8.329428,4.163814,-29.455629,-1.691342
68000,0.069432,-1.711854,8.413225,3.782134,-31.760973,-1.462335
72000,0.062249,-1.654393,8.492233,3.400455,-33.547234,-1.844014
76000,0.057461,-1.685518,8.588001,3.415722,-35.394562,-2.027220
80000,0.011971,-1.632846,8.748413,3.492058,-36.844944,-2.576838
84000,0.083797,-1.582567,8.695741,3.644730,-38.890743,-3.385999
88000,-0.038307,-1.596933,8.762778,3.889004,-41.409828,-4.439434
92000,-0.100556,-1.570596,8.791509,5.263051,-45.043415,-5.645541
96000,-0.186748,-1.656788,8.973468,6.347020,-48.631203,-6.668441
100000,-0.229843,-1.695095,8.978256,8.056944,-51.745705,-7.172258
104000,-0.316035,-1.721431,8.932767,9.522593,-54.783875,-7.966151
108000,-0.373495,-1.695095,9.035717,10.469157,-58.096851,-8.210426
112000,-0.359130,-1.771709,9.117120,11.598928,-59.867844,-8.134090
116000,-0.344765,-1.754950,9.085996,12.514958,-61.379295,-8.118823
120000,-0.356736,-1.869871,8.956709,13.018775,-63.241890,-8.103557
124000,-0.411803,-1.889025,9.085996,14.056943,-65.150284,-7.935617
128000,-0.521936,-1.917756,9.006987,14.621829,-67.257149,-6.866915
132000,-0.605733,-1.917756,9.097966,14.255417,-69.638832,-5.584472
136000,-0.478840,-1.886631,9.251195,14.270683,-71.989975,-3.721877
140000,-0.354342,-1.855506,9.409213,14.530226,-72.280052,-1.553938
144000,-0.045490,-1.898602,9.473856,15.293585,-71.455627,0.354459
148000,0.019154,-1.819593,9.394848,15.507325,-70.677002,1.652169
152000,0.246603,-1.687912,9.409213,16.011143,-70.921272,2.720871
156000,0.624887,-1.740585,9.390059,16.484425,-70.844940,2.369726
160000,0.744597,-1.680730,9.291897,17.201982,-71.852570,1.636902
164000,0.826000,-1.589750,9.320627,18.438623,-73.272423,0.537665
168000,0.967257,-1.565808,9.181764,20.881372,-76.463257,-1.141724
172000,1.194707,-1.472434,9.074024,23.369921,-80.677002,-4.042487
176000,1.161188,-1.513135,8.882488,26.911905,-88.249519,-7.569205
180000,1.096544,-1.515530,8.906430,30.194349,-95.944176,-11.492869
184000,1.043872,-1.549049,8.870518,33.782135,-106.020508,-15.248594
188000,1.012747,-1.572991,8.834604,38.041676,-114.432724,-18.469967
192000,0.878672,-1.460463,8.585608,41.736332,-122.738068,-20.882181
196000,0.816423,-1.462857,8.283937,46.408089,-128.280060,-22.256227
200000,0.928950,-1.438915,7.970297,48.652363,-138.951813,-24.546303
204000,1.161188,-1.302446,8.080431,49.537861,-139.959457,-24.546303
208000,1.134852,-1.158794,7.931990,49.598930,-145.241898,-25.248594
212000,1.577779,-1.067814,7.802703,47.965340,-143.715179,-24.149357
216000,1.616086,-0.914585,7.785944,46.728699,-147.196091,-24.927982
220000,2.118869,-0.842759,7.673417,44.698166,-143.928909,-23.385998
224000,2.317587,-0.835576,7.867347,42.362289,-138.341125,-22.195158
228000,2.355895,-0.821211,7.817069,39.705799,-137.302963,-21.401266
232000,2.695871,-0.806846,7.812280,37.965340,-134.768616,-20.454700
236000,2.870648,-0.725443,7.709330,35.904270,-132.906021,-20.637907
240000,3.038242,-0.627281,7.553706,33.843204,-131.470901,-20.958517
244000,3.162740,-0.622492,7.501034,32.484425,-131.409836,-21.721876
248000,3.246537,-0.610521,7.520187,31.889006,-132.646469,-22.851646
252000,3.342306,-0.646434,7.405266,32.102745,-136.402191,-24.714243
256000,3.208230,-0.600945,7.405266,33.324120,-142.341125,-26.729509
260000,3.306392,-0.718261,7.422025,34.789768,-145.104492,-26.668442
264000,3.217807,-0.639252,7.398083,35.278316,-150.341125,-27.279127
268000,3.426103,-0.679953,7.402872,34.774502,-156.677002,-27.889814
272000,3.555390,-0.744597,7.532158,34.102745,-159.913651,-28.439434
276000,3.598485,-0.718261,7.917625,33.415722,-164.371658,-29.172258
280000,3.773262,-0.778116,8.231265,33.415722,-167.486160,-29.263861
284000,4.005499,-0.689530,8.480263,33.659996,-168.890747,-29.798212
288000,4.232949,-0.799663,8.722076,34.835567,-169.715179,-30.408899
292000,4.321534,-0.952892,8.841787,37.827938,-169.073959,-30.989052
296000,4.247314,-1.051055,8.736442,40.576027,-169.012878,-31.737143
300000,4.067749,-0.933739,8.463503,41.980610,-168.890747,-31.630274
304000,3.849876,-1.007959,8.437167,43.614197,-169.394562,-31.004318
308000,3.677494,-1.082179,8.185776,44.728699,-171.470901,-30.088287
312000,3.646369,-1.005565,8.063671,45.598930,-171.669373,-28.103556
316000,3.837905,-0.981623,7.967903,46.743969,-169.226624,-26.515770
320000,3.979163,-0.895431,8.080431,47.461525,-166.921280,-24.179892
324000,4.496311,-0.806846,8.082825,48.270683,-163.638840,-22.378365
328000,4.884171,-0.675165,7.927202,49.659996,-159.623566,-21.340197
332000,5.003881,-0.476446,7.596802,50.362289,-156.005249,-20.668442
336000,5.185841,-0.366313,7.129933,50.102745,-152.295334,-19.905083
340000,5.109226,-0.184354,6.643910,49.843204,-149.638840,-18.989052
344000,5.135562,-0.047884,6.323087,48.514961,-150.218994,-18.714243
348000,5.401319,0.004788,6.016629,47.919540,-151.287689,-18.989052
352000,5.418078,0.079009,5.786786,46.774502,-152.035782,-19.141724
356000,5.293580,0.040701,5.760449,45.797401,-153.562500,-19.095922
360000,5.274426,-0.031125,5.817910,45.721066,-153.073959,-17.920349
364000,5.204995,-0.069432,5.779603,45.889004,-153.226624,-16.821114
368000,5.030218,-0.050278,5.552154,46.194347,-154.722809,-16.042488
372000,4.984728,-0.100556,5.473145,46.453892,-157.196091,-14.454701
376000,5.207389,-0.148441,5.499481,47.171448,-158.951813,-13.737144
380000,5.152322,-0.169988,5.372589,47.568394,-159.287689,-12.271496
384000,5.238513,-0.167594,5.264850,48.377556,-160.707535,-10.729510
388000,5.465962,-0.198719,5.111620,49.583660,-160.081589,-9.920350
392000,5.489904,-0.067038,4.944026,50.759235,-158.951813,-9.111190
396000,5.398925,-0.122104,4.644751,51.598930,-158.692276,-7.935617
400000,5.279215,-0.110133,4.319140,52.438625,-158.921280,-6.302029
404000,5.307945,-0.107739,4.137180,51.965340,-159.516708,-4.408900
408000,5.525817,-0.083797,4.132392,51.308853,-158.356400,-2.515770
412000,5.801151,-0.019154,4.153940,51.201981,-155.608307,-0.515770
416000,5.875371,-0.050278,4.072537,51.553127,-153.089218,1.606368
420000,6.057330,-0.043096,3.971981,52.469158,-150.814407,2.995681
424000,5.963956,-0.035913,3.890578,52.652363,-150.951813,4.094917
428000,5.822699,-0.055067,3.636792,52.514961,-153.699905,4.552933
432000,5.887342,-0.031125,3.584120,52.850838,-156.982346,5.606368
436000,5.997475,-0.014365,3.383007,54.301220,-162.218994,6.140719
440000,6.349423,-0.016759,3.301604,55.919540,-166.524338,6.049116
444000,6.526594,-0.038307,3.258508,56.194347,-170.096848,5.346826
448000,6.548141,-0.093374,3.406949,56.866104,-174.860214,4.736139
452000,6.411672,-0.131681,3.588908,58.179081,-179.073959,4.659803
456000,6.399701,-0.213084,3.646369,58.866104,-180.631210,6.003314
460000,6.591237,-0.119710,3.541024,58.606564,-180.112122,8.354459
464000,6.959944,-0.040701,3.375824,57.644730,-175.959457,11.438428
468000,7.199365,0.007183,2.861071,56.316486,-171.974716,13.362092
472000,7.438785,0.134075,2.585738,53.843204,-169.257156,14.476596
476000,7.558495,0.126893,2.499547,52.087479,-168.218994,15.301023
480000,7.474698,0.031125,2.379837,51.904274,-168.906021,15.362092
484000,7.536947,0.153229,2.068590,51.797401,-170.890747,16.033850
488000,7.575254,0.090980,1.774103,52.453892,-174.280060,16.522398
492000,7.510611,0.126893,1.493982,53.507324,-178.799149,16.598734
496000,7.551312,0.167594,1.438915,52.972973,-182.615936,16.934612
500000,7.841011,0.167594,1.467646,52.682899,-184.081589,17.835377
504000,7.721301,0.177171,1.192312,51.873737,-186.921280,18.598734
508000,7.948750,0.189142,1.240196,49.446259,-190.051056,19.682705
512000,8.109161,0.052672,1.446098,48.133282,-191.791504,20.781940
516000,8.219295,0.110133,1.735796,47.156181,-189.883118,22.598734
520000,8.238448,0.031125,1.927332,46.667633,-186.234253,25.362093
524000,8.238448,-0.007183,1.750161,46.285954,-183.364029,27.896444
528000,8.329428,0.019154,1.491588,45.140915,-181.440369,30.430796
532000,8.937555,-0.007183,1.300052,44.408089,-177.394562,31.636902
536000,9.100361,0.114922,1.113304,44.011143,-173.287689,32.079651
540000,9.370906,0.181959,1.084573,42.270683,-170.463272,32.018581
544000,9.545682,0.203507,1.149217,39.751602,-167.272430,31.789574
548000,9.787497,0.155623,0.885855,38.652363,-164.768616,31.759041
552000,9.744401,0.169988,0.773327,38.698166,-163.760971,31.438429
556000,9.742006,0.126893,0.696713,38.530228,-164.814407,30.568201
560000,9.773131,0.184354,0.497994,37.797401,-166.005249,30.430796
564000,9.844957,0.162806,0.701501,36.408089,-166.631210,29.789574
568000,9.909601,0.174777,0.768539,35.354652,-166.967087,29.194155
572000,10.208876,0.215478,1.017536,34.499691,-166.020523,28.491865
576000,10.402806,0.229843,1.125275,35.293583,-163.684647,27.285757
580000,10.206482,0.289698,0.919373,33.629463,-163.867844,25.926979
584000,10.299856,0.107739,1.120486,35.461525,-159.593033,26.201788
588000,10.160992,0.093374,0.967257,34.942440,-158.951813,25.163620
592000,10.249578,0.093374,0.699107,34.163815,-156.203720,25.224689
596000,10.278308,-0.033519,0.536301,33.568394,-153.715179,25.133085
600000,10.340557,-0.009577,0.222661,33.934807,-151.348770,25.239956
604000,10.381259,-0.076614,-0.011971,33.308853,-148.768616,25.178886
608000,10.390836,-0.052672,-0.351948,31.293585,-146.386932,24.507132
612000,10.230424,-0.090980,-0.632069,28.545494,-144.020523,24.812475
616000,10.012551,-0.165200,-0.744597,25.171448,-143.043427,25.835377
620000,9.931149,-0.110133,-0.663194,21.354654,-140.066315,28.018581
624000,10.187328,-0.055067,-0.272939,17.247784,-132.692276,31.667439
628000,10.587160,-0.011971,-0.021548,13.904271,-121.104477,35.896446
632000,10.953473,0.122104,0.014365,11.492058,-111.425095,38.934612
636000,11.324574,0.251391,0.114922,9.446257,-104.249519,40.720871
640000,11.525687,0.354342,0.160412,8.026409,-98.875473,41.850643
644000,11.726800,0.402226,0.100556,6.866104,-96.142647,42.201790
648000,12.265495,0.598550,0.071826,6.224882,-92.692268,42.232323
652000,12.758701,0.660800,0.220267,6.667630,-91.913643,40.491863
656000,13.093889,0.785298,0.313640,7.995874,-91.165550,38.155987
660000,13.309367,0.780510,0.462081,9.110378,-91.730438,34.736137
664000,13.342886,0.723049,0.411803,11.736333,-90.814407,32.278126
668000,13.280637,0.847547,0.342371,12.652363,-90.921272,29.667437
672000,13.383588,0.881066,0.457293,12.194347,-88.127380,27.942245
676000,13.429077,0.926556,0.543484,11.629462,-82.860207,27.148354
680000,13.467384,0.924162,0.313640,11.293585,-75.196083,27.010948
684000,13.290214,0.897826,0.177171,10.927173,-67.791504,27.575834
688000,13.273455,1.015141,-0.375890,9.186714,-62.234257,28.079651
692000,13.436260,1.053449,-0.969652,5.659997,-58.554867,28.186522
696000,13.611036,1.254562,-1.223437,1.476791,-55.730438,27.759041
700000,13.802573,1.175553,-1.101333,-2.874354,-52.615936,26.843010
704000,14.274231,1.012747,-0.639252,-5.729317,-45.883110,25.514765
708000,14.480132,1.031901,-0.239420,-7.485042,-37.180820,24.018581
712000,14.343662,0.876278,-0.112527,-8.904889,-29.104485,21.957514
716000,14.195222,0.761356,-0.035913,-10.156797,-23.501431,19.743773
720000,13.953407,0.565032,-0.090980,-10.904889,-19.959446,17.407894
724000,13.934254,0.577003,0.110133,-11.851454,-16.768606,14.781940
728000,13.974956,0.476446,0.277727,-12.187331,-12.783874,11.804840
732000,13.845669,0.344765,0.617704,-11.393438,-10.631202,8.308658
736000,13.697227,0.229843,0.928950,-9.881988,-9.150286,5.010948
740000,13.273455,0.136469,1.003170,-7.072827,-8.509065,2.843009
744000,12.887988,-0.059855,1.110910,-3.897255,-7.150285,1.285757
748000,12.478580,-0.076614,1.000776,-0.340003,-6.707537,0.965146
752000,12.234370,-0.033519,0.615310,2.652363,-6.020514,0.904078
756000,12.157756,0.059855,0.287304,4.408089,-5.470896,1.346826
760000,12.191275,0.126893,-0.122104,5.324119,-3.883110,1.652169
764000,12.203246,0.174777,-0.557849,5.308852,-1.852576,1.148352
768000,12.181698,0.272939,-0.854730,4.591295,0.605440,1.468963
772000,12.047623,0.323217,-0.957681,3.522592,4.239028,2.018581
776000,11.954249,0.402226,-1.055843,1.629462,7.887883,2.308658
780000,11.832145,0.387861,-1.304840,-0.538476,12.239027,3.194154
784000,11.870452,0.385466,-1.429338,-3.194965,16.483301,3.270490
788000,11.947066,0.344765,-1.594538,-5.194965,19.475668,2.888810
792000,11.925519,0.328006,-1.546654,-6.431606,20.864981,1.560566
796000,11.726800,0.335188,-1.596933,-7.317102,19.689409,-0.210426
800000,11.681310,0.339977,-1.328782,-8.034659,17.353531,-2.210426
804000,11.631032,0.201113,-0.974440,-7.530843,15.689409,-4.011953
808000,11.566388,0.114922,-0.826000,-6.492675,15.399332,-5.721877
812000,11.331757,0.050278,-0.648829,-5.423973,15.277195,-6.790579
816000,11.123461,-0.055067,-0.500388,-4.446874,15.567271,-7.324930
820000,10.960655,-0.100556,-0.505177,-3.927789,15.948952,-7.553937
824000,10.843340,-0.191536,-0.392649,-3.362904,16.208492,-7.385999
828000,10.658986,-0.256180,-0.414197,-2.569010,16.590172,-7.187525
832000,10.474632,-0.344765,-0.557849,-2.233133,16.193226,-6.576838
836000,10.218452,-0.306458,-0.797269,-2.752217,15.765745,-5.141724
840000,10.240001,-0.308852,-0.859518,-3.866720,15.826813,-3.218060
844000,10.388441,-0.306458,-0.974440,-5.072827,16.010019,-1.966151
848000,10.486604,-0.311246,-1.209072,-6.263667,15.994753,-1.080655
852000,10.386047,-0.284910,-1.292869,-7.943057,14.055821,-0.912716
856000,10.388441,-0.248997,-1.314417,-9.607179,11.674142,-0.622640
860000,10.381259,-0.222661,-1.280898,-10.904889,9.322997,-0.744777
864000,10.374076,-0.313640,-1.048660,-12.095729,6.391699,-0.729510
868000,10.378864,-0.222661,-0.979228,-11.881988,4.529104,-0.927984
872000,10.467450,-0.210690,-0.974440,-11.378171,3.139791,-0.698976
876000,10.536881,-0.088585,-0.885855,-11.683515,2.269562,-1.416533
880000,10.735600,-0.126893,-0.756568,-11.500309,1.979486,-2.500503
884000,10.769119,-0.193930,-0.586579,-10.019393,2.574905,-3.462335
888000,10.697293,-0.320823,-0.569820,-6.385805,3.399333,-4.225693
892000,10.426748,-0.217872,-0.615310,-1.301835,3.124524,-4.882182
896000,10.213664,-0.189142,-0.876278,1.308852,4.055821,-4.347831
900000,10.070012,-0.019154,-1.168370,1.400455,3.506203,-4.073022
904000,10.141838,0.052672,-1.316811,0.270684,2.025287,-4.149358
908000,10.132261,-0.031125,-1.010353,0.453890,1.216127,-4.485235
912000,9.828198,-0.213084,-0.907402,-1.820919,1.857348,-3.966152
916000,9.806650,-0.057461,-0.672771,1.430989,8.055821,-1.523403
920000,9.643845,-0.107739,-1.000776,0.056943,6.712310,-0.607373
924000,9.799467,0.014365,-1.079785,-1.576644,6.422234,0.415528
928000,9.945514,0.019154,-1.268927,-2.370538,6.315363,0.736139
932000,10.060435,0.136469,-1.144428,-3.851454,6.406967,1.026215
936000,10.184934,0.093374,-0.893037,-4.904889,5.948951,0.552933
940000,10.319010,0.124498,-0.679953,-5.652981,6.544371,0.354459
944000,10.251971,0.026336,-0.471658,-5.469774,8.223760,0.446062
948000,10.201694,0.009577,-0.545878,-5.439240,10.422234,0.949879
952000,10.096349,-0.026336,-0.615310,-6.065194,11.857347,1.255223
956000,9.923966,0.055067,-0.651223,-6.874354,12.651241,1.881177
960000,9.947908,0.035913,-0.713472,-8.584278,13.231394,2.827742
964000,10.072407,0.093374,-0.708684,-10.553743,13.658875,3.591101
968000,10.153810,0.122104,-0.507571,-11.958323,14.132157,4.110185
972000,10.424355,0.181959,-0.347159,-12.920156,15.490935,4.155986
976000,10.790668,0.217872,-0.155623,-13.347636,16.177958,3.591101
980000,10.836157,0.239420,-0.055067,-13.317103,15.429867,2.262856
984000,10.764331,0.179565,0.081403,-13.378171,14.697042,0.446062
988000,10.714052,0.083797,0.287304,-12.859088,13.567271,-0.729510
992000,10.733206,-0.081403,0.445322,-11.225499,12.742844,-2.210426
996000,10.625467,-0.081403,0.569820,-9.210233,11.536737,-4.042487
1000000,10.491392,-0.265756,0.569820,-6.630079,10.559638,-5.691342
1004000,10.184934,-0.258574,0.318429,-4.263667,8.284829,-6.668441
1008000,10.081984,-0.402226,0.462081,-2.828552,5.903150,-7.218060
1012000,9.964667,-0.459687,0.596156,-0.462140,5.246661,-7.523403
1016000,10.005369,-0.502782,0.617704,1.430989,5.414600,-7.645541
1020000,9.923966,-0.509965,0.517148,3.263050,5.933684,-7.416533
1024000,9.648633,-0.533907,0.301669,4.316485,6.315363,-6.973785
1028000,9.528923,-0.526724,0.035913,4.469157,5.597806,-6.011953
1032000,9.519346,-0.509965,-0.349553,4.179081,5.384066,-5.187525
1036000,9.615114,-0.373495,-0.486023,3.171447,4.468035,-4.271495
1040000,9.665392,-0.301669,-0.756568,2.011142,3.200860,-3.340197
1044000,9.600749,-0.256180,-0.912191,1.003508,1.674142,-2.195159
1048000,9.854534,-0.208296,-1.072602,-0.340003,0.834447,-1.309663
1052000,10.058042,-0.126893,-1.048660,-2.309469,0.742844,-1.019587
1056000,10.165780,-0.090980,-1.046266,-4.431606,1.322997,-0.760045
1060000,10.041282,0.021548,-0.921768,-6.599545,1.536737,-0.271495
1064000,10.146626,-0.081403,-0.605733,-8.691149,1.872615,-0.134090
1068000,10.199299,-0.045490,-0.308852,-9.240767,3.032921,0.003314
1072000,10.232818,-0.031125,-0.241814,-9.515575,4.177959,0.400261
1076000,10.034100,-0.095768,-0.407014,-9.576645,4.132157,0.262856
1080000,9.945514,-0.146046,-0.246603,-9.194965,3.414600,-0.179892
1084000,9.806650,-0.229843,-0.196325,-8.889622,1.674142,-0.149358
1088000,9.823410,-0.232238,-0.026336,-8.584278,-0.402194,-0.485235
1092000,9.813833,-0.318429,0.081403,-7.454507,-0.539598,0.186520
1096000,9.658210,-0.375890,0.067038,-6.660614,-0.692270,0.904078
1100000,9.464279,-0.383072,0.047884,-5.591911,-1.272423,1.881177
1104000,9.497798,-0.320823,0.217872,-5.393438,-2.341125,3.026215
1108000,9.682152,-0.373495,0.435745,-4.706415,-2.142652,3.789574
1112000,9.979033,-0.450110,0.687136,-3.210232,-0.310591,4.797207
1116000,10.165780,-0.438139,0.636858,-1.164430,2.422234,5.209421
1120000,10.213664,-0.287304,0.486023,-0.019392,3.552005,5.316291
1124000,10.407595,-0.201113,0.282516,1.293585,3.261928,4.980413
1128000,10.575189,-0.126893,0.071826,2.408089,3.200860,3.957513
1132000,10.575189,-0.062249,-0.160412,2.667631,1.979486,2.766673
1136000,10.512939,0.019154,-0.320823,2.453890,0.605440,1.743772
1140000,10.381259,0.107739,-0.383072,1.308852,-0.936545,0.888810
1144000,10.357317,0.083797,-0.342371,-0.004125,-1.470896,0.797207
1148000,10.134656,0.052672,-0.301669,-1.714049,-1.211354,1.667436
1152000,10.074800,0.057461,-0.189142,-2.965957,0.468035,2.736139
1156000,10.141838,0.086191,-0.220267,-4.874354,2.987119,4.049116
1160000,10.273520,0.093374,-0.088585,-6.553743,5.704677,5.438429
1164000,10.407595,0.160412,0.059855,-7.698782,8.071088,5.804841
1168000,10.412383,0.146046,0.172383,-8.507942,8.590172,6.018581
1172000,10.548853,0.090980,0.320823,-8.340003,9.582539,6.094917
1176000,10.661380,0.093374,0.478840,-7.912522,10.315363,5.972780
1180000,10.919954,0.119710,0.687136,-7.042294,10.910783,5.545299
1184000,11.164163,0.105345,0.845153,-5.286569,11.460402,3.911711
1188000,11.298238,0.148441,0.940921,-3.164430,11.429867,1.896444
1192000,11.221623,0.093374,0.845153,-0.446873,10.712310,-0.332564
1196000,10.795456,0.016759,0.517148,2.148547,8.635974,-2.302029
1200000,10.498574,0.043096,0.186748,3.644730,5.246661,-3.095922
1204000,10.319010,-0.023942,0.074220,4.347020,2.651241,-3.324930
1208000,10.386047,-0.083797,-0.059855,4.805035,2.025287,-2.943251
1212000,10.395624,-0.023942,-0.095768,5.125646,2.788646,-2.897449
1216000,10.354922,0.000000,-0.248997,3.980608,3.475669,-2.118823
1220000,10.314221,0.000000,-0.323217,2.056943,4.529104,-1.248594
1224000,10.225636,0.062249,-0.371101,-0.049927,5.811547,-0.332564
1228000,10.141838,-0.047884,-0.318429,-1.775118,7.368799,1.041482
1232000,10.096349,-0.081403,-0.344765,-3.072828,8.071088,2.446062
1236000,10.050858,-0.088585,-0.483629,-3.897255,7.063455,3.102551
1240000,10.146626,-0.035913,-0.555455,-5.515575,5.032921,3.728505
1244000,10.275913,-0.040701,-0.414197,-7.194965,2.880249,3.759039
1248000,10.541670,-0.153229,0.033519,-7.790385,2.864982,3.133085
1252000,10.522516,-0.184354,0.160412,-7.607179,2.452768,2.522398
1256000,10.515334,-0.222661,0.318429,-6.736950,0.635974,1.591100
1260000,10.400413,-0.316035,0.476446,-5.576645,0.819180,1.270490
1264000,10.400413,-0.296881,0.452504,-4.385805,0.880249,0.705604
1268000,10.311827,-0.359130,0.476446,-3.317102,0.071089,0.140719
1272000,10.206482,-0.438139,0.591368,-2.401072,-0.783873,-0.286762
1276000,10.228029,-0.421380,0.806846,-1.759850,0.055821,-0.286762
1280000,10.364499,-0.483629,0.849942,-0.217866,1.445134,-0.454701
1284000,10.345345,-0.466869,0.818817,1.217249,2.208493,-0.729510
1288000,10.228029,-0.416591,0.612916,2.805035,1.475669,-1.095922
1292000,10.196905,-0.380678,0.481235,3.507325,0.483302,-1.385999
1296000,10.196905,-0.347159,0.560243,4.209615,0.635974,-1.599739
1300000,10.211270,-0.347159,0.462081,4.698165,1.277195,-1.737144
1304000,10.199299,-0.263362,0.521936,4.881371,2.269562,-1.080655
1308000,10.220847,-0.323217,0.457293,5.446257,5.155058,-0.790579
1312000,10.117896,-0.332794,0.227449,5.889005,7.460402,0.232322
1316000,9.983821,-0.294487,-0.241814,5.889005,8.071088,0.934612
1320000,9.830592,-0.227449,-0.586579,5.598928,6.956585,1.667436
1324000,9.696517,-0.129287,-0.861913,4.301219,4.987119,2.781940
1328000,9.696517,-0.117316,-0.998382,1.553127,3.093989,3.835375
1332000,9.962274,-0.107739,-0.814029,-0.798018,2.926050,4.705605
1336000,10.141838,-0.031125,-0.581791,-2.492675,3.399333,5.392627
1340000,10.216059,-0.064643,-0.404620,-3.591912,4.605440,5.697971
1344000,10.093954,-0.050278,-0.320823,-4.049927,4.941318,5.942245
1348000,9.986216,0.009577,-0.373495,-4.935423,4.101623,6.659803
1352000,10.017340,0.026336,-0.138864,-5.668247,4.055821,7.209421
1356000,10.144233,0.038307,0.035913,-5.469774,3.826814,7.499498
1360000,10.378864,0.031125,0.045490,-4.706415,3.307730,6.827742
1364000,10.486604,0.000000,0.148441,-3.698782,2.376432,5.881177
1368000,10.544065,0.028730,0.126893,-2.721682,1.216127,4.400261
1372000,10.668563,-0.021548,0.169988,-1.790385,0.086356,3.392627
1376000,10.673351,0.009577,0.246603,-1.622446,-0.493797,1.774307
1380000,10.546458,-0.102951,0.375890,-0.630080,-1.318224,0.400261
1384000,10.479421,-0.129287,0.349553,0.255417,-1.211354,-0.118823
1388000,10.333375,-0.201113,0.294487,1.018775,-1.272423,-0.424167
1392000,10.254366,-0.258574,0.411803,1.644730,0.269562,0.033849
1396000,10.314221,-0.294487,0.536301,2.102745,2.666508,0.644536
1400000,10.256760,-0.328006,0.512359,2.957707,5.139791,1.499497
1404000,10.113108,-0.282516,0.263362,3.186715,6.941318,2.247589
1408000,10.048465,-0.277727,0.105345,2.835569,8.773378,3.438429
1412000,10.129868,-0.153229,-0.052672,2.087478,9.918416,4.033849
1416000,10.213664,-0.119710,-0.076614,1.644730,10.132157,4.125452
1420000,10.271125,-0.090980,-0.019154,1.125646,9.872615,4.262856
1424000,10.280702,-0.062249,-0.043096,1.369921,9.445134,4.049116
1428000,10.352529,-0.076614,-0.136469,1.736333,8.437500,4.217055
1432000,10.359711,-0.021548,-0.169988,2.011142,7.429867,3.759039
1436000,10.445902,0.002394,-0.323217,1.705798,7.017653,3.575833
1440000,10.409989,-0.033519,-0.143652,0.545493,6.803913,3.652169
1444000,10.412383,-0.095768,-0.215478,-0.431606,6.452768,3.652169
1448000,10.469844,-0.124498,-0.241814,-1.301835,7.338264,4.064383
1452000,10.498574,-0.021548,-0.366313,-2.172064,7.552005,4.155986
1456000,10.565612,-0.045490,-0.411803,-2.950690,7.002387,3.682703
1460000,10.745177,-0.074220,-0.256180,-3.423972,6.177959,3.392627
1464000,10.759542,-0.040701,-0.126893,-3.744583,4.590173,2.201787
1468000,10.817003,-0.081403,0.052672,-3.958324,2.101623,0.873543
1472000,10.766725,-0.148441,0.229843,-3.530843,0.712310,-0.531037
1476000,10.639832,-0.208296,0.193930,-2.660614,-0.799140,-1.752411
1480000,10.529699,-0.284910,0.313640,-1.790385,-2.478530,-2.057755
1484000,10.354922,-0.387861,0.447716,-0.706415,-3.608301,-2.363098
1488000,10.271125,-0.418985,0.373495,-0.156797,-3.898377,-2.485235
1492000,10.240001,-0.464475,0.481235,0.072211,-2.127385,-1.966151
1496000,10.084377,-0.488417,0.363919,-0.172064,-0.493797,-1.447067
1500000,9.935937,-0.565032,0.514753,-0.569010,0.941318,-0.424167
1504000,9.971850,-0.493206,0.471658,-1.317102,3.292463,0.965146
1508000,9.931149,-0.445322,0.505177,-1.897255,5.139791,2.354459
1512000,9.998186,-0.414197,0.512359,-2.004125,7.170325,3.514765
1516000,10.165780,-0.464475,0.320823,-1.714049,9.338264,4.430795
1520000,10.374076,-0.349553,0.220267,-1.271301,10.773378,4.552933
1524000,10.477027,-0.301669,0.143652,-0.584278,10.864982,3.575833
1528000,10.500969,-0.215478,0.117316,0.469157,9.322997,2.384994
1532000,10.366894,-0.217872,0.196325,1.186714,7.109257,1.255223
1536000,10.352529,-0.205901,0.191536,1.385188,5.246661,0.430795
1540000,10.299856,-0.282516,0.272939,2.026409,4.620707,0.262856
1544000,10.201694,-0.227449,0.181959,2.377554,5.200860,0.430795
1548000,10.014946,-0.210690,0.064643,1.965340,5.918417,1.392627
1552000,10.012551,-0.165200,-0.019154,1.400455,7.124524,2.690337
1556000,10.141838,-0.107739,0.021548,0.805035,8.422234,3.423162
1560000,10.261548,-0.062249,-0.304064,0.377554,9.322997,3.850643
1564000,10.302250,0.028730,-0.481235,-0.538476,9.536737,4.003314
1568000,10.208876,0.119710,-0.588974,-2.507942,7.490936,3.926979
1572000,10.275913,0.150835,-0.541090,-3.897255,4.574905,3.331558
1576000,10.429143,0.143652,-0.421380,-4.935423,2.910783,2.827742
1580000,10.556035,0.050278,-0.292093,-4.446874,1.964218,2.018581
1584000,10.637438,0.026336,-0.330400,-3.958324,1.704676,0.858276
1588000,10.512939,-0.002394,-0.081403,-3.683514,1.231394,0.140719
1592000,10.496181,-0.131681,-0.043096,-3.194965,1.338264,-0.698976
1596000,10.455479,-0.169988,0.196325,-2.828552,2.269562,-1.599739
1600000,10.086772,-0.263362,0.074220,-2.736950,2.284829,-1.126457
1604000,9.876082,-0.325611,0.158017,-2.813286,1.155058,-0.622640
1608000,9.900024,-0.361524,0.122104,-2.889621,3.231394,1.163620
1612000,9.880871,-0.375890,0.165200,-3.378171,4.513837,2.522398
1616000,9.914390,-0.328006,0.167594,-3.881988,5.735211,3.346826
1620000,10.098742,-0.289698,0.095768,-4.523210,7.399333,4.217055
1624000,10.165780,-0.205901,0.114922,-5.042294,7.750478,4.278123
1628000,10.266336,-0.179565,0.124498,-5.149163,7.338264,4.171253
1632000,10.309433,-0.186748,0.225055,-5.194965,6.956585,3.697971
1636000,10.309433,-0.229843,0.205901,-4.874354,7.017653,3.438429
1640000,10.330980,-0.177171,0.229843,-4.065194,6.849715,2.934612
1644000,10.235212,-0.270545,0.268151,-3.515576,6.208493,2.507131
1648000,10.314221,-0.229843,0.418985,-3.088094,6.330631,2.522398
1652000,10.266336,-0.282516,0.359130,-2.904888,7.490936,2.614001
1656000,10.357317,-0.237026,0.330400,-3.286568,8.574905,2.583467
1660000,10.527305,-0.275333,0.380678,-3.332370,8.971851,2.308658
1664000,10.575189,-0.306458,0.328006,-2.294202,10.162691,1.438429
1668000,10.431537,-0.294487,0.150835,-0.462140,9.826814,0.690337
1672000,10.311827,-0.296881,-0.011971,0.163814,8.788646,-0.011953
1676000,10.247183,-0.270545,-0.059855,0.469157,7.093989,-0.744777
1680000,10.093954,-0.304064,-0.117316,-0.156797,5.826814,-0.897449
1684000,10.046070,-0.344765,-0.095768,-1.576644,4.590173,-0.943251
1688000,10.007763,-0.385466,0.011971,-2.446873,4.376432,-0.760045
1692000,10.048465,-0.404620,0.306458,-3.423972,5.979486,-0.240961
1696000,9.988609,-0.380678,0.344765,-3.622446,8.529103,0.598734
1700000,10.005369,-0.466869,0.330400,-3.576644,9.933683,0.644536
1704000,9.816227,-0.411803,0.057461,-3.317102,9.063455,0.675070
1708000,9.713276,-0.438139,0.102951,-3.088094,6.223761,0.751406
1712000,9.777920,-0.478840,0.196325,-2.523209,2.880249,0.537665
1716000,9.844957,-0.490811,0.284910,-1.820919,0.681776,0.583467
1720000,9.938332,-0.512359,0.486023,-0.935423,-0.142652,0.614001
1724000,9.974244,-0.488417,0.500388,-0.355270,0.544371,0.858276
1728000,9.885659,-0.529119,0.641646,-0.141530,2.132157,1.392627
1732000,9.880871,-0.435745,0.533907,0.072211,2.834447,2.262856
1736000,9.816227,-0.418985,0.519542,-0.049927,3.475669,3.621635
1740000,9.873688,-0.330400,0.325611,-0.675881,4.132157,4.873543
1744000,10.196905,-0.359130,0.292093,-0.828552,5.903150,5.560566
1748000,10.388441,-0.184354,0.165200,-0.981224,6.681776,5.636902
1752000,10.493786,-0.105345,-0.076614,-1.347636,5.078722,5.178887
1756000,10.599131,-0.033519,-0.019154,-1.729316,2.666508,4.369727
1760000,10.855310,0.019154,-0.014365,-1.637713,0.697043,3.026215
1764000,10.802638,0.026336,-0.193930,-0.843820,-0.615934,1.972780
1768000,10.675745,0.067038,-0.316035,-1.362904,-2.310591,0.736139
1772000,10.594342,0.059855,-0.205901,-2.935423,-4.081583,-0.118823
1776000,10.579977,0.019154,-0.016759,-4.095729,-5.440361,-0.469968
1780000,10.421960,-0.093374,0.150835,-4.721683,-3.944179,0.110184
1784000,10.340557,-0.155623,0.301669,-4.935423,-2.447995,0.675070
1788000,10.237606,-0.225055,0.306458,-5.057561,-0.677003,1.346826
1792000,10.134656,-0.136469,0.203507,-5.698782,1.246661,2.446062
1796000,10.084377,-0.205901,0.155623,-7.118629,2.651241,3.606368
1800000,10.074800,-0.215478,0.169988,-8.110995,2.758112,4.415528
1804000,10.086772,-0.213084,0.229843,-8.523210,1.139791,4.720871
1808000,10.323798,-0.256180,0.404620,-8.614813,1.307730,5.591101
1812000,10.283096,-0.237026,0.512359,-8.721683,1.322997,5.530032
1816000,10.582372,-0.217872,0.586579,-8.141530,2.177959,5.514765
1820000,10.953473,-0.105345,0.806846,-7.622446,2.315363,3.957513
1824000,10.946290,-0.098162,0.763750,-6.446874,1.628341,2.476597
1828000,11.034876,-0.174777,0.972046,-4.614813,1.353531,0.827742
1832000,10.862494,-0.227449,0.878672,-2.904888,1.017653,-0.714243
1836000,10.699687,-0.234632,0.900220,-1.469774,-0.173186,-1.492869
1840000,10.678140,-0.277727,0.952892,-0.523209,-1.073950,-2.134090
1844000,10.587160,-0.287304,1.019930,-0.049927,-0.829675,-2.515770
1848000,10.613496,-0.347159,1.010353,0.560760,0.513837,-2.576838
1852000,10.496181,-0.430956,0.914585,1.553127,1.109257,-2.683709
1856000,10.417171,-0.390255,0.723049,2.316485,1.429867,-2.332564
1860000,10.307038,-0.375890,0.524330,2.209615,1.567272,-1.721877
1864000,10.330980,-0.275333,0.454898,0.988241,1.353531,-1.141724
1868000,10.491392,-0.280122,0.545878,-0.172064,1.277195,-1.248594
1872000,10.685322,-0.229843,0.562637,-0.691148,1.719944,-1.584472
1876000,10.802638,-0.260968,0.514753,-0.675881,2.025287,-2.576838
1880000,10.721235,-0.150835,0.418985,-0.156797,0.956585,-3.645541
1884000,10.668563,-0.179565,0.497994,-0.263667,0.177959,-4.332564
1888000,10.582372,-0.131681,0.371101,0.194348,-1.028148,-5.584472
1892000,10.443508,-0.184354,0.395043,0.133279,-2.310591,-6.332563
1896000,10.347740,-0.201113,0.615310,0.362287,-2.478530,-6.592105
1900000,10.314221,-0.189142,0.699107,0.301218,-1.486163,-6.027220
1904000,10.139444,-0.325611,0.586579,0.224882,0.513837,-5.508136
1908000,9.955091,-0.311246,0.390255,0.469157,2.071089,-4.439434
1912000,9.847352,-0.344765,0.189142,-0.217866,2.437501,-3.263861
1916000,9.761160,-0.320823,0.160412,-1.256034,1.796279,-2.134090
1920000,9.727641,-0.318429,0.174777,-2.340003,2.574905,-0.622640
1924000,9.722853,-0.282516,0.112527,-3.393438,3.536737,0.690337
1928000,9.715671,-0.306458,0.105345,-4.431606,4.483303,1.804841
1932000,9.684546,-0.356736,0.203507,-5.943057,5.063455,2.965146
1936000,9.840169,-0.366313,0.328006,-7.515575,6.513837,4.323925
1940000,10.137050,-0.392649,0.526724,-8.065194,8.727577,4.888811
1944000,10.553641,-0.418985,0.600945,-6.981225,11.155058,4.384994
1948000,10.498574,-0.411803,0.588974,-5.607179,10.620707,2.278123
1952000,10.211270,-0.435745,0.409408,-3.515576,6.803913,1.041482
1956000,10.223241,-0.488417,0.416591,-2.049927,2.376432,-0.729510
1960000,10.117896,-0.555455,0.505177,-0.385804,-1.043415,-2.363098
1964000,10.010158,-0.565032,0.509965,0.866104,-3.898377,-3.019587
1968000,9.938332,-0.758962,0.727837,1.492058,-5.623568,-3.813480
1972000,9.864111,-0.816423,0.837971,2.179081,-4.906011,-3.233327
1976000,9.758766,-0.857124,0.787692,2.347020,-3.119751,-2.011953
1980000,9.662998,-0.852336,0.727837,2.743967,-1.058682,-0.653174
1984000,9.696517,-0.751779,0.629675,3.140913,0.437501,0.461329
1988000,9.579201,-0.672771,0.481235,3.430989,1.597806,1.484230
1992000,9.583989,-0.577003,0.260968,2.866104,1.613073,2.644536
1996000,9.746795,-0.478840,0.184354,2.347020,1.353531,3.560566
