time_us,ax,ay,az,gx,gy,gz
0,-1.355118,-0.596156,8.252813,-2.248400,0.666508,0.140719
4000,-1.465251,-0.617704,8.068460,-2.935423,1.231394,1.362093
8000,-1.489193,-0.706290,8.046912,-4.034659,1.277195,2.568200
12000,-1.386243,-0.660800,8.082825,-5.683515,1.292463,3.545299
16000,-1.312023,-0.672771,8.054094,-7.225499,2.086356,4.843009
20000,-1.225831,-0.744597,8.192958,-8.340003,3.994753,6.033849
24000,-1.302446,-0.770933,8.085219,-9.469774,5.658875,6.980413
28000,-1.338359,-0.687136,8.082825,-10.401072,7.139791,7.820108
32000,-1.335965,-0.677559,8.022970,-11.591911,7.521471,8.843008
36000,-1.292869,-0.682347,8.121132,-12.614812,8.223760,9.575833
40000,-1.137246,-0.675165,8.216900,-13.393439,8.712310,9.468963
44000,-0.943315,-0.620098,8.243237,-14.202600,9.277195,8.491863
48000,-0.691924,-0.524330,8.303091,-14.172065,10.116890,7.407895
52000,-0.502782,-0.536301,8.279149,-13.973592,11.689409,4.980413
56000,-0.627281,-0.577003,8.176199,-14.233132,11.368798,2.675070
60000,-0.744597,-0.629675,8.195353,-14.477408,9.857347,0.659803
64000,-0.864307,-0.622492,8.365341,-14.859088,8.758111,-1.111190
68000,-0.988805,-0.746991,8.499416,-15.103362,8.513836,-2.424167
72000,-1.173159,-0.797269,8.700529,-14.187331,7.811547,-3.248594
76000,-1.338359,-0.754174,8.695741,-13.118629,6.498569,-4.042487
80000,-1.323994,-0.823605,8.834604,-11.469774,6.452768,-5.187525
84000,-1.580173,-0.916979,8.643068,-10.324736,5.185593,-6.653174
88000,-1.821988,-0.933739,8.746018,-9.454507,0.742844,-7.996686
92000,-1.924938,-1.031901,9.035717,-8.034659,-5.348759,-9.172258
96000,-2.008735,-1.007959,9.208099,-6.492675,-10.127385,-9.966152
100000,-1.970428,-0.995988,9.318233,-5.423973,-14.157920,-10.515770
104000,-1.953669,-1.010353,9.267955,-4.477407,-16.738071,-10.775312
108000,-1.915361,-1.048660,9.306262,-3.194965,-17.287691,-10.378366
112000,-2.023100,-1.058237,9.205706,-1.851454,-16.631203,-9.706610
116000,-2.032677,-1.086968,9.097966,-1.698782,-16.310591,-9.065389
120000,-2.190695,-1.039083,9.097966,-1.927789,-17.180820,-8.225694
124000,-2.336741,-1.096544,9.062054,-2.217866,-18.951813,-7.279129
128000,-2.272097,-1.154005,9.121908,-1.714049,-20.600668,-6.515769
132000,-2.346318,-1.091756,9.033323,-1.393438,-22.860210,-6.073021
136000,-2.415750,-1.074997,9.021352,-1.332370,-26.783875,-6.271495
140000,-2.432509,-1.084573,9.021352,-0.309469,-30.249523,-6.485235
144000,-2.300828,-1.024718,8.784326,0.759233,-32.264790,-6.836380
148000,-2.322376,-1.043872,8.729259,0.606562,-34.768608,-7.782945
152000,-2.559402,-1.113304,8.571242,0.545493,-38.951813,-8.637908
156000,-2.640805,-1.206678,8.767567,1.797401,-44.295322,-9.584473
160000,-2.674323,-1.261744,8.734048,2.835569,-48.982346,-10.118824
164000,-2.825158,-1.197101,8.844181,3.034043,-53.593033,-10.286762
168000,-2.686294,-1.218649,8.631097,3.492058,-57.531963,-10.546305
172000,-2.221819,-1.106121,8.418014,5.079844,-59.516697,-11.981419
176000,-2.054225,-1.070208,8.295909,6.301218,-62.249523,-14.179893
180000,-2.166753,-1.017536,8.252813,6.560760,-68.081581,-16.378365
184000,-2.039860,-1.055843,8.736442,6.988241,-74.096848,-18.454700
188000,-1.869871,-1.096544,9.200917,9.705798,-79.135017,-20.393631
192000,-1.534683,-0.972046,9.337387,13.263050,-83.669365,-22.958517
196000,-1.051055,-0.804452,9.241618,16.484425,-87.623566,-26.057755
200000,-0.909797,-0.634463,8.906430,18.301218,-93.257149,-30.332563
204000,-1.180341,-0.550666,8.983045,17.354654,-109.730438,-36.302029
208000,-0.608127,-0.656011,9.299079,22.423357,-106.921272,-37.355465
212000,-1.053449,-0.617704,9.346964,22.621830,-115.073944,-41.706608
216000,-1.271321,-0.684742,8.975863,23.827936,-127.699898,-45.111191
220000,-1.280898,-0.634463,8.956709,26.224884,-134.325867,-47.218060
224000,-1.764527,-0.684742,8.743625,28.469158,-140.753342,-48.118824
228000,-2.066196,-0.701501,8.504205,29.690533,-146.234253,-47.218060
232000,-2.288857,-0.754174,8.360553,28.347021,-151.073959,-45.431801
236000,-2.511518,-0.802058,8.291121,26.102745,-153.883118,-42.103554
240000,-2.576161,-0.902614,8.339005,23.644730,-154.356400,-38.042488
244000,-2.686294,-0.974440,8.221688,20.118013,-153.150284,-33.370731
248000,-2.863465,-0.876278,8.118738,15.598928,-153.684647,-27.782946
252000,-2.513912,-0.804452,8.171411,12.133279,-154.264801,-22.851646
256000,-1.905785,-0.739808,8.240842,9.980608,-152.325867,-18.286762
260000,-1.381454,-0.730232,8.358158,7.934806,-152.554871,-15.798213
264000,-0.718261,-0.663194,8.372523,6.713432,-156.249527,-15.492869
268000,-0.260968,-0.632069,8.537724,7.721066,-162.203720,-17.065388
272000,0.098162,-0.541090,8.480263,10.240149,-169.135025,-18.897449
276000,0.196325,-0.478840,8.283937,11.766868,-182.173187,-23.141724
280000,0.531513,-0.459687,8.044518,15.354653,-189.440369,-25.798212
284000,0.577003,-0.426168,7.929596,16.514959,-198.493805,-29.508135
288000,0.773327,-0.536301,7.836222,17.919538,-205.104492,-32.302029
292000,0.950498,-0.641646,7.773973,18.453890,-208.860214,-34.714241
296000,0.756568,-0.732626,7.750031,18.820303,-212.692276,-35.874546
300000,0.699107,-0.940921,7.649475,18.957706,-215.150284,-35.263863
304000,0.916979,-1.015141,7.999028,18.560760,-214.600677,-34.088287
308000,1.345541,-1.144428,8.360553,19.736334,-208.356400,-31.874548
312000,1.357512,-1.268927,8.693346,23.003510,-200.386932,-28.240959
316000,1.359907,-1.285686,8.815451,23.873737,-194.035782,-24.408899
320000,1.350330,-1.213860,8.731653,23.507326,-187.150284,-19.156990
324000,1.592144,-1.192312,8.573636,23.659998,-180.814407,-13.156992
328000,1.874660,-1.070208,8.382100,22.957708,-177.684647,-7.966151
332000,2.387019,-0.957681,8.444349,22.499693,-176.463272,-3.905083
336000,2.985569,-0.837971,8.190564,23.171448,-172.936554,-0.256228
340000,3.502717,-0.545878,7.963115,23.415724,-172.051056,2.293390
344000,4.151546,-0.316035,7.706935,23.950073,-173.989990,2.873543
348000,4.570531,-0.237026,7.465121,24.835569,-177.165558,2.003314
352000,4.745308,0.002394,7.247249,24.652365,-183.593033,0.140719
356000,5.219360,0.069432,7.216124,25.049311,-189.638840,-1.966151
360000,5.501875,0.205901,7.125144,25.797401,-191.989990,-4.454701
364000,5.537788,0.335188,6.912060,25.400455,-191.638840,-6.408899
368000,5.444415,0.383072,6.550536,23.950073,-190.356400,-7.996686
372000,5.616797,0.375890,6.282385,22.011143,-188.295334,-9.630274
376000,5.458780,0.514753,6.014235,19.079845,-185.089218,-10.027221
380000,5.343858,0.502782,5.906496,15.980607,-181.974716,-10.790579
384000,5.609614,0.428562,6.011840,14.026409,-179.012878,-11.676076
388000,5.554548,0.517148,6.019023,13.049310,-178.264801,-13.294396
392000,5.645528,0.438139,6.009446,12.927173,-178.768616,-14.912717
396000,5.631162,0.339977,6.210559,13.690531,-180.280060,-17.080654
400000,5.626374,0.287304,6.521805,16.255417,-181.287689,-18.744778
404000,5.525817,0.143652,6.373365,19.369921,-181.135025,-19.630274
408000,5.243302,0.119710,6.129156,22.698166,-182.738083,-19.996685
412000,5.331887,0.105345,5.825093,25.156181,-184.127396,-20.668442
416000,5.322310,0.007183,5.298368,26.652365,-183.806778,-20.897449
420000,4.967968,-0.050278,4.948815,26.911905,-184.264801,-20.760044
424000,4.678270,-0.191536,4.841076,25.812670,-187.593033,-20.531036
428000,4.601655,-0.462081,4.833893,25.354654,-192.020523,-20.714243
432000,4.455609,-0.644040,4.819528,25.034044,-194.371658,-20.240959
436000,4.067749,-0.859518,4.539406,25.980608,-197.028152,-18.897449
440000,3.797204,-1.058237,4.685453,27.278318,-199.745712,-16.592106
444000,3.943250,-1.230620,5.109226,29.232517,-198.783875,-13.584473
448000,4.070143,-1.448492,5.181053,32.148548,-189.226624,-8.698977
452000,3.564966,-1.546654,5.216966,33.904270,-185.470901,-4.408900
456000,3.308787,-1.520318,4.946421,34.927174,-186.203720,0.247589
460000,3.533842,-1.649605,4.632780,37.980610,-184.295334,5.621635
464000,3.600879,-1.419762,4.438850,37.369923,-181.562500,11.255222
468000,4.031836,-1.197101,3.962404,34.118011,-181.669373,15.713237
472000,4.881777,-0.907402,2.964022,29.904272,-181.302963,19.239956
476000,5.623980,-0.715866,2.264915,25.705799,-182.814407,20.690338
480000,6.335058,-0.634463,2.212242,22.102745,-185.608307,20.110186
484000,6.940791,-0.330400,1.903390,18.896639,-186.615936,19.102551
488000,7.199365,-0.213084,1.831564,14.743966,-188.478531,17.239956
492000,7.548918,-0.035913,1.845930,10.377554,-191.699905,14.858275
496000,8.200141,-0.074220,1.932121,7.736333,-193.257156,12.079650
500000,8.279149,-0.090980,2.200271,5.308852,-194.341125,8.904078
504000,8.173804,-0.155623,2.075773,3.476791,-194.906021,6.781940
508000,7.924808,-0.246603,2.312799,0.881371,-196.692276,5.881177
512000,7.996634,-0.119710,2.291251,-1.958324,-197.043427,6.110185
516000,8.690952,-0.040701,2.676718,-5.408706,-194.921280,5.499497
520000,9.473856,-0.100556,2.882619,-4.431606,-190.173187,4.598734
524000,9.627085,0.026336,2.940080,-4.217866,-186.447998,3.362093
528000,9.777920,0.107739,2.734178,-5.423973,-184.203720,2.446062
532000,10.115502,0.203507,2.360683,-7.164431,-182.005249,0.583467
536000,10.323798,0.426168,2.363077,-9.881988,-178.325867,-0.118823
540000,10.663774,0.308852,2.430115,-11.637713,-177.333496,-1.263861
544000,10.979809,0.375890,2.652776,-12.477408,-176.081589,-3.691342
548000,10.833763,0.203507,2.729390,-12.309468,-173.791504,-5.553937
552000,10.532093,0.112527,2.774880,-10.752217,-175.058685,-6.576838
556000,10.347740,0.155623,2.853889,-11.149163,-175.547241,-7.156991
560000,10.053253,-0.052672,2.942474,-14.110995,-175.669373,-6.943251
564000,9.533711,-0.275333,3.220201,-17.286568,-176.799149,-5.202793
568000,9.208099,-0.533907,3.641581,-18.767483,-177.760971,-1.996686
572000,9.291897,-0.641646,3.967192,-18.340002,-177.364029,1.926978
576000,9.528923,-0.775721,4.613626,-18.034658,-176.234253,5.072017
580000,9.569624,-0.852336,4.924873,-16.492674,-174.112122,8.614001
584000,9.823410,-0.897826,5.372589,-14.034659,-170.188461,12.568199
588000,10.699687,-0.926556,5.647922,-9.011759,-163.455627,14.430795
592000,10.905589,-0.878672,5.535394,-3.088094,-157.318222,15.865909
596000,10.766725,-0.773327,5.231331,1.247783,-155.699905,16.614002
600000,10.805033,-0.713472,4.762067,4.682898,-153.989990,17.163620
604000,10.864887,-0.526724,4.283227,7.721066,-152.417465,17.575834
608000,11.089942,-0.368707,4.015076,10.163814,-150.707535,18.232323
612000,11.317391,-0.411803,3.677494,11.889005,-148.081589,18.476597
616000,11.109096,-0.232238,2.913743,11.904272,-146.264801,18.598734
620000,11.008539,-0.177171,2.130840,10.621829,-145.806778,18.308659
624000,10.747571,-0.114922,1.419762,7.553127,-144.020523,18.781940
628000,10.558430,-0.105345,0.995988,3.263050,-140.982346,20.614002
632000,10.553641,-0.143652,0.763750,-2.019392,-136.035782,22.812475
636000,10.721235,-0.124498,0.897826,-6.416339,-131.364029,24.751406
640000,11.034876,-0.217872,1.189918,-11.088095,-124.646461,26.247589
644000,11.168951,-0.251391,1.151611,-14.340003,-118.936539,26.384995
648000,11.343728,-0.241814,1.335965,-17.454506,-115.012878,25.804842
652000,11.295844,-0.304064,1.508347,-19.103361,-112.875473,24.323925
656000,11.398794,-0.402226,1.800440,-19.546110,-107.089211,23.499498
660000,11.384429,-0.593762,2.066196,-21.072826,-114.967079,19.560566
664000,11.463438,-0.579397,2.387019,-18.110994,-117.058678,16.919346
668000,12.191275,-0.694318,2.937685,-16.523209,-111.883110,14.430795
672000,12.145785,-0.763750,3.145981,-15.301835,-107.028145,10.827742
676000,11.812991,-0.792481,3.050213,-12.278935,-104.722801,7.224689
680000,11.446678,-0.921768,3.007117,-8.553743,-103.974709,4.812475
684000,11.159374,-0.883460,2.985569,-4.721683,-100.890739,4.812475
688000,10.876859,-0.845153,3.138798,-3.362904,-93.776237,6.659803
692000,10.833763,-0.785298,3.124433,-0.370538,-89.379288,8.140718
696000,11.051635,-0.749385,2.940080,2.408089,-82.524330,9.682703
700000,11.295844,-0.565032,2.808398,6.469157,-76.631195,10.094917
704000,11.417948,-0.356736,2.624045,10.408089,-73.806770,9.499497
708000,11.578360,-0.258574,2.592921,13.171447,-69.150284,9.148352
712000,11.616667,-0.198719,2.468422,15.308851,-65.364021,8.461329
716000,11.621455,-0.047884,1.774103,18.133280,-60.524330,8.247588
720000,11.389217,0.122104,1.019930,18.209616,-58.386929,7.392627
724000,11.008539,0.155623,0.667982,16.240150,-59.028149,6.995681
728000,11.156980,0.155623,0.459687,15.705798,-56.005249,8.003314
732000,10.764331,0.165200,0.229843,14.331753,-55.043415,8.598734
736000,10.833763,0.160412,0.126893,12.301218,-53.318226,9.636902
740000,10.661380,0.136469,-0.169988,8.682898,-49.883110,11.514764
744000,10.244789,0.081403,-0.021548,5.217249,-47.150288,13.377359
748000,10.074800,-0.004788,-0.064643,2.774501,-43.760971,16.155987
752000,9.730036,-0.083797,0.126893,-0.141530,-41.699905,19.285757
756000,9.598354,-0.083797,0.227449,-1.790385,-39.669369,22.995682
760000,10.240001,0.004788,0.222661,-3.515576,-35.333492,25.652170
764000,10.690110,0.143652,0.416591,-4.324736,-30.005247,27.056749
768000,11.307815,0.275333,0.553061,-4.813286,-27.822042,26.125452
772000,11.793838,0.378284,0.682347,-4.217866,-25.470896,23.636902
776000,12.356475,0.502782,0.742203,-2.798018,-24.799141,19.148354
780000,12.466608,0.495600,0.718261,0.377554,-25.806774,13.484230
784000,12.050017,0.356736,0.541090,2.743967,-28.707539,8.339191
788000,11.671733,0.277727,0.450110,4.896638,-33.501431,3.911711
792000,11.224017,0.181959,0.354342,6.805035,-36.753338,0.980413
796000,10.807426,-0.067038,0.282516,8.331753,-35.837307,0.415528
800000,10.362105,-0.021548,-0.033519,7.247783,-33.883110,1.133085
804000,10.472239,0.009577,-0.141258,4.743967,-30.768606,2.171253
808000,10.778696,0.062249,-0.016759,3.232516,-26.799141,2.278123
812000,10.699687,-0.081403,0.110133,3.782134,-23.119751,2.186520
816000,10.441113,-0.258574,-0.014365,4.224883,-20.280056,2.186520
820000,10.263943,-0.251391,-0.287304,4.362287,-18.844942,1.667436
824000,10.117896,-0.342371,-0.399832,5.278317,-19.409828,1.530032
828000,9.691729,-0.347159,-0.565032,7.217249,-23.043415,1.041482
832000,9.425972,-0.392649,-0.505177,8.285952,-26.142653,2.262856
836000,9.244013,-0.447716,-0.474052,8.148546,-27.272423,4.400261
840000,9.181764,-0.533907,-0.330400,7.827936,-26.585400,7.438429
844000,9.320627,-0.519542,-0.217872,6.682898,-22.509064,11.713238
848000,9.313444,-0.569820,-0.201113,4.911905,-16.814407,16.537666
852000,9.502586,-0.423774,-0.287304,2.881371,-11.150286,21.301025
856000,9.519346,-0.354342,-0.529119,0.820302,-5.211354,26.293390
860000,9.727641,-0.263362,-0.517148,-1.683514,-1.425095,30.323925
864000,10.793061,-0.062249,-0.184354,-2.523209,2.635974,32.797207
868000,11.599907,0.172383,-0.167594,-1.744583,6.025287,32.400261
872000,11.992557,0.167594,-0.050278,0.118012,4.956585,30.033850
876000,12.306197,0.452504,0.067038,1.446256,4.132157,26.064383
880000,12.871228,0.495600,0.342371,4.179081,2.116890,20.171253
884000,13.263878,0.371101,0.770933,8.026409,2.040554,13.545299
888000,13.122620,0.205901,0.950498,12.942439,3.948951,7.820108
892000,12.401965,-0.059855,0.957681,16.423355,5.200860,3.377360
896000,11.963826,-0.177171,0.830788,18.453890,6.956585,1.453696
900000,11.547235,-0.409408,0.735020,19.766867,6.666509,0.018581
904000,11.080365,-0.414197,0.600945,19.369921,7.643608,0.201787
908000,10.874464,-0.502782,0.426168,17.965342,10.681775,1.789574
912000,10.893618,-0.533907,0.445322,16.591295,15.170325,4.323925
916000,10.864887,-0.488417,0.342371,15.186714,21.261929,7.484231
920000,11.046846,-0.349553,-0.100556,12.224882,26.315363,10.155986
924000,11.563994,-0.117316,-0.651223,9.446257,29.582539,10.308658
928000,11.635820,-0.138864,-1.283292,6.514959,29.231394,9.468963
932000,11.571177,0.064643,-1.577779,3.736333,26.666508,6.904078
936000,11.561600,-0.023942,-1.599327,0.362287,18.635973,3.407894
940000,11.686098,-0.114922,-1.333570,-1.393438,14.361164,0.125452
944000,11.480197,-0.359130,-0.890643,-2.507942,12.635974,-2.989052
948000,11.032481,-0.579397,-0.672771,-3.133896,10.422234,-5.691342
952000,10.481815,-0.816423,-0.457293,-3.866720,6.803913,-7.599739
956000,9.928755,-0.988805,-0.292093,-4.401072,4.956585,-7.553937
960000,9.409213,-1.175553,-0.040701,-5.164431,3.811547,-6.500503
964000,9.069236,-1.307234,0.294487,-4.965958,3.735211,-4.607373
968000,8.796297,-1.474828,0.500388,-4.263667,4.529104,-1.981419
972000,8.465898,-1.563414,0.390255,-3.988858,4.452768,1.575833
976000,8.317456,-1.527501,0.440533,-3.683514,4.345898,5.530032
980000,8.518570,-1.426944,0.579397,-3.179698,4.773379,9.224688
984000,8.858546,-1.338359,0.706290,-2.553744,7.719944,12.965146
988000,9.325416,-1.096544,0.859518,-1.805652,10.529103,15.652169
992000,9.837775,-0.936133,0.835576,-0.645346,12.819180,16.873545
996000,10.697293,-0.751779,0.859518,1.598928,14.605439,15.896443
1000000,10.898406,-0.553061,0.512359,4.469157,15.139791,13.865910
1004000,11.003751,-0.390255,0.105345,6.255417,11.399332,10.598734
1008000,11.025299,-0.275333,-0.081403,6.942440,3.552005,6.079650
1012000,11.049241,-0.407014,-0.167594,8.484425,-2.280056,2.217055
1016000,10.845734,-0.466869,-0.225055,9.812669,-7.486163,-1.187526
1020000,10.522516,-0.742203,-0.023942,10.514958,-11.119752,-2.927984
1024000,10.453085,-0.814029,-0.009577,10.362287,-10.493797,-3.126457
1028000,10.477027,-0.835576,0.014365,9.079844,-7.272423,-2.424167
1032000,10.407595,-0.902614,-0.239420,6.911905,-4.051049,-1.202793
1036000,10.251971,-0.871489,-0.351948,3.614195,-1.272423,0.888810
1040000,10.043676,-0.816423,-0.593762,-1.637713,-1.150285,2.323925
1044000,10.046070,-0.814029,-0.883460,-6.248401,-1.684637,3.988047
1048000,10.060435,-0.770933,-0.914585,-10.126263,-2.035782,6.003314
1052000,10.165780,-0.675165,-1.079785,-13.194964,-1.638835,7.346826
1056000,10.551247,-0.627281,-1.031901,-17.042292,-0.310591,8.400260
1060000,10.867282,-0.514753,-0.826000,-20.263666,0.315363,8.033848
1064000,11.018116,-0.600945,-0.478840,-22.477407,1.032921,7.774307
1068000,11.123461,-0.577003,-0.040701,-22.660612,2.559638,6.949879
1072000,11.360487,-0.572214,0.306458,-21.561377,3.261928,5.331559
1076000,11.190498,-0.543484,0.560243,-19.576643,1.781012,2.995681
1080000,11.008539,-0.660800,1.024718,-16.141529,-2.371660,0.339192
1084000,10.845734,-0.826000,1.328782,-11.744583,-3.837308,-0.851648
1088000,10.589554,-1.070208,1.635240,-7.210233,-2.188453,-1.645541
1092000,10.101137,-1.086968,1.520318,-3.759850,0.758111,-0.790579
1096000,9.737218,-1.233014,1.386243,-1.622446,3.582539,1.224688
1100000,9.569624,-1.024718,1.132457,-0.019392,7.796279,3.301024
1104000,9.792285,-1.046266,0.945710,1.522592,9.781012,4.568200
1108000,9.849746,-1.000776,0.787692,2.621829,10.193226,5.133085
1112000,9.892841,-0.957681,0.699107,3.705798,9.689409,5.072017
1116000,10.041282,-0.888249,0.588974,4.316485,9.872615,5.423162
1120000,10.247183,-0.842759,0.605733,4.850837,10.361164,5.102551
1124000,10.398018,-0.754174,0.471658,6.026409,11.429867,4.140719
1128000,10.824186,-0.739808,0.385466,7.125646,13.048187,2.949879
1132000,10.855310,-0.792481,0.450110,8.118012,12.635974,0.904078
1136000,10.793061,-0.852336,0.234632,8.713432,12.605439,-0.576838
1140000,10.781090,-0.914585,0.102951,8.927173,11.689409,-2.164625
1144000,10.656591,-1.034295,0.160412,8.972974,10.880248,-3.737144
1148000,10.316615,-1.154005,0.095768,9.110378,10.483302,-4.042487
1152000,10.077195,-1.252167,-0.059855,8.163814,9.887882,-4.057755
1156000,10.113108,-1.295263,-0.189142,6.667630,9.887882,-3.752411
1160000,9.773131,-1.345541,-0.071826,4.514959,8.391699,-3.080655
1164000,9.641450,-1.410185,0.000000,2.728699,7.231394,-1.950884
1168000,9.737218,-1.379060,0.311246,1.354653,6.849715,-0.927984
1172000,9.761160,-1.352724,0.462081,1.400455,8.101623,-0.042487
1176000,9.730036,-1.403002,0.581791,1.598928,7.903150,0.049116
1180000,9.483433,-1.350330,0.684742,2.377554,6.147425,0.491864
1184000,9.478644,-1.340753,0.677559,3.247783,5.552005,1.056749
1188000,9.387665,-1.309628,0.768539,3.782134,4.025287,1.881177
1192000,9.509769,-1.347936,0.893037,4.850837,3.735211,2.278123
1196000,9.445126,-1.364695,0.833182,6.179081,4.269562,3.362093
1200000,9.418790,-1.335965,0.861913,7.614195,3.216127,4.003314
1204000,9.358934,-1.295263,0.833182,8.148546,2.559638,5.133085
1208000,9.330204,-1.163582,0.883460,8.194348,1.811547,6.614001
1212000,9.291897,-1.199495,0.948104,7.507325,1.857348,8.415527
1216000,9.461885,-1.118092,0.871489,7.354653,2.162692,10.079650
1220000,9.665392,-0.986411,0.758962,7.690531,4.620707,12.201787
1224000,9.871294,-0.778116,0.450110,7.537859,7.048188,13.423162
1228000,10.359711,-0.502782,0.167594,6.347020,8.498569,13.774306
1232000,10.620679,-0.351948,-0.239420,4.652363,8.269562,12.766672
1236000,10.728417,-0.227449,-0.325611,3.201982,5.277195,11.133085
1240000,10.934319,-0.201113,-0.155623,2.148547,2.987119,9.331558
1244000,11.082760,-0.260968,-0.138864,1.583661,1.704676,7.178887
1248000,11.118672,-0.248997,-0.093374,1.034043,0.849715,4.934612
1252000,10.994174,-0.270545,0.074220,1.247783,-0.692270,2.491864
1256000,10.812215,-0.402226,0.227449,2.087478,-2.234255,0.415528
1260000,10.371682,-0.524330,0.260968,2.423356,-4.890743,-0.653174
1264000,10.251971,-0.648829,0.474052,2.957707,-7.333491,-1.172258
1268000,10.218452,-0.751779,0.588974,2.881371,-6.631201,-0.866915
1272000,10.062830,-0.816423,0.718261,2.148547,-3.425095,0.171253
1276000,9.876082,-0.948104,0.672771,2.270684,-0.982347,1.713238
1280000,9.734824,-0.905008,0.648829,1.415722,-0.493797,3.148352
1284000,9.811439,-0.955287,0.665588,1.812669,1.124524,4.873543
1288000,10.074800,-0.976834,0.378284,1.980608,3.918417,6.415528
1292000,10.031705,-0.837971,0.193930,0.713432,6.284829,7.713238
1296000,10.182540,-0.823605,0.344765,-0.507942,7.032921,8.369726
1300000,10.335769,-0.823605,0.313640,-1.179698,8.101623,9.346826
1304000,10.405201,-0.842759,0.387861,-1.240766,7.765746,9.667436
1308000,10.546458,-0.900220,0.531513,-0.660614,7.048188,9.087283
1312000,10.460267,-0.900220,0.706290,0.331753,5.139791,8.446062
1316000,10.460267,-0.991199,0.928950,0.484424,4.254295,7.972780
1320000,10.747571,-1.058237,1.180341,1.186714,3.674142,7.209421
1324000,10.850522,-1.127669,1.359907,2.392821,3.964219,5.804841
1328000,10.965444,-1.094150,1.525106,3.812669,4.300097,4.797207
1332000,10.795456,-1.122881,1.549049,3.140913,5.231394,3.606368
1336000,10.670957,-1.175553,1.441309,2.866104,6.239028,2.965146
1340000,10.678140,-1.019930,1.268927,2.652363,7.322997,2.537665
1344000,10.929531,-0.984017,1.165976,3.171447,8.529103,1.163620
1348000,11.056423,-0.931344,0.902614,4.469157,9.674142,-0.271495
1352000,10.826580,-0.751779,0.679953,5.873737,6.819180,-2.790579
1356000,10.711658,-0.809240,0.457293,7.263050,3.918417,-4.622640
1360000,10.467450,-0.763750,0.260968,7.461524,1.750478,-6.073021
1364000,9.957485,-0.792481,-0.007183,6.759233,-1.272423,-6.408899
1368000,9.785102,-0.799663,0.081403,5.369921,-3.669369,-6.073021
1372000,9.648633,-0.893037,0.069432,3.980608,-2.417461,-4.698976
1376000,9.526528,-0.905008,0.004788,2.056943,0.697043,-2.439434
1380000,9.409213,-0.938527,0.014365,-0.095728,3.261928,0.323925
1384000,9.311050,-0.885855,0.076614,-2.813286,5.139791,2.614001
1388000,9.449914,-0.957681,0.380678,-3.912522,6.376432,5.072017
1392000,9.634268,-1.000776,0.754174,-4.049927,8.116890,7.224689
1396000,9.710882,-0.998382,0.847547,-4.019392,8.529103,8.568199
1400000,9.971850,-1.010353,0.909797,-3.652980,9.567271,10.018581
1404000,10.038888,-1.053449,0.823605,-3.042293,10.605439,10.476596
1408000,10.172963,-0.998382,0.821211,-2.324736,11.582539,10.873543
1412000,10.292673,-1.029507,0.962469,-2.110996,10.773378,10.415527
1416000,10.608707,-0.995988,1.039083,-1.042293,10.803913,9.499497
1420000,10.929531,-0.962469,1.192312,0.606562,11.979486,7.850643
1424000,11.008539,-0.969652,1.154005,2.576027,11.643607,5.178887
1428000,10.876859,-0.995988,1.197101,4.713432,9.536737,2.583467
1432000,10.915166,-0.995988,1.055843,6.331753,7.994752,0.217055
1436000,10.692505,-0.955287,0.735020,7.140913,7.185593,-1.706609
1440000,10.544065,-1.058237,0.569820,7.171447,5.109257,-3.599739
1444000,10.402806,-1.043872,0.404620,6.637096,3.338264,-4.866915
1448000,10.208876,-1.036689,0.495600,6.805035,2.834447,-5.798213
1452000,9.945514,-1.108515,0.241814,6.209615,3.460402,-5.706609
1456000,9.591172,-1.110910,0.122104,5.446257,2.697043,-4.943251
1460000,9.507375,-1.165976,-0.009577,3.537859,2.559638,-3.737144
1464000,9.447520,-1.053449,-0.102951,1.079844,4.620707,-1.798213
1468000,9.361329,-1.055843,-0.155623,-0.859087,6.758111,0.110184
1472000,9.342175,-0.974440,-0.150835,-3.103362,6.666509,1.926978
1476000,9.397242,-1.024718,-0.016759,-5.622446,4.513837,2.843009
1480000,9.713276,-1.067814,0.167594,-6.126263,7.857348,4.675070
1484000,9.694122,-1.120486,0.445322,-6.584278,10.819180,6.186521
1488000,9.864111,-1.082179,0.555455,-6.462141,10.956584,6.262856
1492000,9.976639,-1.058237,0.660800,-6.080462,10.681775,6.430795
1496000,10.132261,-1.015141,0.749385,-5.561378,10.895515,6.262856
1500000,10.345345,-1.007959,1.003170,-3.301835,10.132157,5.133085
1504000,10.357317,-1.070208,1.019930,-0.614812,7.796279,3.636902
1508000,10.146626,-1.060631,0.924162,1.079844,3.994753,2.339192
1512000,10.024523,-1.048660,1.127669,2.545493,0.391699,1.362093
1516000,10.065224,-1.082179,1.309628,4.881371,-1.394560,0.781940
1520000,10.053253,-1.089362,1.142034,7.644730,-2.035782,0.659803
1524000,10.120291,-1.039083,1.113304,8.545493,-2.707537,0.705604
1528000,10.120291,-1.072602,0.986411,9.537860,-2.280056,1.194154
1532000,10.170568,-1.015141,0.902614,9.476790,-0.524331,1.988047
1536000,10.338163,-0.991199,0.670376,9.064577,0.040554,2.614001
1540000,10.436325,-0.871489,0.521936,7.797401,1.368798,3.026215
1544000,10.457873,-0.840365,0.134075,5.965341,2.880249,3.560566
1548000,10.532093,-0.778116,-0.021548,3.125646,3.170325,3.667437
1552000,10.857705,-0.780510,0.021548,0.835569,2.758112,2.690337
1556000,11.130644,-0.749385,0.028730,-0.553744,2.101623,1.239955
1560000,11.077971,-0.691924,0.177171,-1.027026,-0.646469,-1.095922
1564000,11.118672,-0.718261,0.296881,-1.179698,-1.791507,-2.607373
1568000,10.975020,-0.794875,0.363919,-1.729316,-3.104484,-4.836380
1572000,10.625467,-0.859518,0.567426,-1.652980,-4.844942,-5.782945
1576000,10.206482,-0.921768,0.577003,-1.637713,-6.478529,-5.966151
1580000,9.938332,-1.019930,0.433351,-1.805652,-6.646469,-5.309663
1584000,9.818622,-1.043872,0.457293,-2.614812,-5.654102,-4.195159
1588000,9.677363,-1.089362,0.577003,-3.836186,-4.447995,-2.210426
1592000,9.698911,-1.125275,0.497994,-4.889622,-2.066316,-0.439434
1596000,9.734824,-1.113304,0.723049,-5.607179,1.322997,1.621635
1600000,9.742006,-1.079785,0.557849,-6.691149,4.269562,3.484231
1604000,10.070012,-1.015141,0.579397,-7.362904,6.269562,4.262856
1608000,10.268731,-0.955287,0.577003,-7.362904,7.246661,3.911711
1612000,10.314221,-0.945710,0.505177,-6.675881,6.086356,2.430795
1616000,10.225636,-0.964863,0.574608,-5.439240,2.208493,0.629268
1620000,10.160992,-1.055843,0.459687,-4.813286,-1.211354,-0.576838
1624000,10.134656,-1.007959,0.773327,-3.790385,-3.593034,-2.027220
1628000,10.132261,-1.142034,0.857124,-2.584278,-5.837308,-2.744777
1632000,9.931149,-1.228225,1.053449,-1.423972,-6.982347,-2.927984
1636000,9.847352,-1.304840,1.039083,-0.477408,-6.967079,-3.340197
1640000,9.622296,-1.371878,1.189918,0.011142,-5.959445,-2.485235
1644000,9.301474,-1.398214,1.307234,0.499691,-5.394560,-0.668442
1648000,9.222465,-1.405396,1.259350,1.034043,-4.005247,1.575833
1652000,9.196129,-1.455675,1.163582,1.705798,-2.005247,4.278123
1656000,9.363723,-1.216254,1.084573,1.659997,1.170325,7.163620
1660000,9.998186,-1.249773,0.890643,1.095111,4.055821,8.797207
1664000,10.522516,-0.991199,0.699107,1.446256,6.941318,8.232322
1668000,10.670957,-0.837971,0.418985,1.965340,5.964219,6.186521
1672000,10.783484,-0.804452,0.107739,2.224883,2.712310,3.514765
1676000,10.603919,-0.809240,0.033519,2.423356,0.483302,1.346826
1680000,10.606314,-0.835576,0.067038,1.873737,-2.906011,-0.424167
1684000,10.639832,-0.881066,0.330400,1.934806,-4.478529,-1.737144
1688000,10.623073,-0.950498,0.500388,1.461524,-2.692270,-2.042487
1692000,10.491392,-0.948104,0.339977,0.667630,0.956585,-1.844014
1696000,10.383653,-1.022324,0.428562,-0.706415,4.590173,-1.126457
1700000,10.058042,-1.077391,0.421380,-2.569010,5.674142,-0.286762
1704000,9.955091,-1.113304,0.478840,-3.729316,7.887883,1.468963
1708000,9.967062,-1.046266,0.567426,-5.133897,9.903150,2.812474
1712000,10.129868,-1.084573,0.857124,-6.645347,12.849714,4.461329
1716000,10.426748,-1.041478,1.084573,-6.660614,16.269562,5.652169
1720000,10.575189,-0.981623,1.031901,-5.393438,17.460402,5.209421
1724000,10.637438,-0.957681,1.036689,-3.714049,15.781012,3.530032
1728000,10.596737,-1.007959,0.864307,-2.691148,11.796279,1.530032
1732000,10.541670,-1.027112,0.912191,-1.286568,9.368798,-0.225693
1736000,10.532093,-1.130063,1.168370,0.560760,6.177959,-2.332564
1740000,10.484209,-1.199495,1.276109,2.972974,4.666509,-4.286762
1744000,10.153810,-1.304840,1.362301,4.240149,3.857348,-4.866915
1748000,9.825804,-1.455675,1.331176,5.415722,4.559639,-4.729510
1752000,9.648633,-1.515530,1.168370,5.766867,5.093989,-3.981419
1756000,9.488221,-1.486799,1.134852,5.537859,5.918417,-2.531037
1760000,9.258378,-1.606509,1.067814,5.507325,5.842081,-1.248594
1764000,9.234436,-1.640028,1.283292,4.988241,5.017653,0.522398
1768000,9.469068,-1.618480,1.403002,5.308852,5.674142,2.140719
1772000,9.732430,-1.520318,1.369483,6.759233,7.918417,3.560566
1776000,9.933543,-1.386243,1.211466,7.797401,9.032920,4.690337
1780000,9.962274,-1.312023,0.919373,7.476791,8.177958,4.659803
1784000,10.048465,-1.096544,0.629675,6.514959,8.116890,5.468963
1788000,10.259154,-0.967257,0.371101,5.537859,7.414600,5.514765
1792000,10.587160,-0.792481,0.141258,3.919539,6.635974,4.690337
1796000,10.673351,-0.665588,-0.165200,1.858470,3.826814,2.812474
1800000,10.699687,-0.641646,-0.172383,-0.187331,0.025287,0.965146
1804000,10.919954,-0.641646,0.095768,-1.362904,-1.730438,-0.927984
1808000,10.864887,-0.653617,0.301669,-2.370538,-2.142652,-2.546304
1812000,10.754754,-0.574608,0.375890,-3.164430,-2.707537,-3.767678
1816000,10.975020,-0.644040,0.521936,-2.752217,-3.638835,-5.431800
1820000,10.922348,-0.622492,0.682347,-2.172064,-4.280056,-7.416533
1824000,10.852917,-0.723049,0.730232,-1.790385,-5.272423,-9.477602
1828000,10.639832,-0.756568,0.672771,-1.210232,-5.394560,-10.469969
1832000,10.366894,-0.919373,0.763750,-0.950690,-5.486163,-11.111190
1836000,10.029311,-0.967257,0.665588,-1.179698,-5.608301,-11.080656
1840000,9.636662,-1.053449,0.711078,-1.637713,-5.501431,-9.523404
1844000,9.459491,-1.067814,0.826000,-2.324736,-5.165553,-7.828747
1848000,9.500193,-1.127669,1.036689,-2.996492,-3.791507,-5.279129
1852000,9.615114,-1.043872,0.967257,-3.423972,-1.638835,-3.156991
1856000,9.758766,-1.031901,1.070208,-3.790385,0.483302,-1.355464
1860000,9.868899,-1.007959,1.144428,-2.981224,1.994753,0.110184
1864000,9.969456,-0.976834,1.041478,-2.416339,2.773379,1.072016
1868000,10.165780,-0.950498,1.142034,-1.347636,0.697043,0.949879
1872000,10.431537,-0.921768,1.221043,0.087478,-1.180820,0.781940
1876000,10.625467,-0.907402,1.288081,2.209615,-0.921278,-0.256228
1880000,10.544065,-0.900220,1.295263,3.766867,-0.921278,-1.004319
1884000,10.613496,-0.940921,1.077391,4.743967,-0.661736,-1.859281
1888000,10.572795,-0.943315,0.847547,5.003509,-0.432728,-2.531037
1892000,10.283096,-0.926556,0.610521,4.270684,-1.425095,-2.989052
1896000,10.211270,-0.962469,0.605733,3.354653,-2.524331,-3.340197
1900000,10.189722,-0.988805,0.574608,2.362287,-2.020514,-3.034854
1904000,10.038888,-1.058237,0.457293,1.537859,-0.967079,-2.744777
1908000,9.926360,-1.086968,0.287304,0.118012,-0.264789,-2.164625
1912000,9.897630,-1.058237,0.263362,-0.904888,0.025287,-1.401266
1916000,10.036493,-1.053449,0.146046,-2.187331,1.292463,-0.973785
1920000,9.902418,-1.063026,0.172383,-3.637713,1.353531,-0.805846
1924000,9.964667,-1.127669,0.282516,-4.477407,1.918417,-0.469968
1928000,9.878476,-1.094150,0.397437,-5.317102,1.933684,-0.225693
1932000,9.777920,-1.151611,0.450110,-6.065194,1.994753,0.339192
1936000,9.809045,-1.094150,0.603339,-6.538477,1.628341,0.736139
1940000,9.923966,-1.106121,1.012747,-6.462141,1.597806,0.843009
1944000,10.146626,-1.113304,1.223437,-5.698782,2.269562,0.552933
1948000,10.151415,-1.079785,1.233014,-4.706415,2.468035,-0.179892
1952000,10.311827,-1.031901,1.338359,-3.530843,3.200860,-0.989052
1956000,10.304645,-1.017536,1.359907,-1.897255,2.987119,-1.844014
1960000,10.338163,-1.067814,1.302446,-0.263667,2.834447,-3.279129
1964000,10.036493,-1.046266,1.120486,0.988241,1.872615,-3.905083
1968000,9.873688,-1.036689,1.046266,1.263050,0.849715,-3.981419
1972000,10.062830,-1.007959,0.964863,1.980608,1.796279,-4.607373
1976000,9.969456,-0.998382,0.905008,2.759233,2.697043,-4.271495
1980000,9.785102,-0.974440,0.677559,2.469157,2.269562,-4.424167
1984000,9.658210,-0.969652,0.490811,1.858470,1.475669,-4.500503
1988000,9.533711,-1.029507,0.490811,0.637096,0.788646,-3.782945
1992000,9.433155,-1.051055,0.550666,-0.340003,0.254295,-2.958518
1996000,9.303867,-1.149217,0.663194,-1.256034,-0.982347,-1.630274
