time_us,ax,ay,az,gx,gy,gz
0,0.531513,-1.256956,8.066066,0.988241,-9.562500,3.072016
4000,0.596156,-1.209072,8.190564,0.270684,-10.386927,2.965146
8000,0.732626,-1.288081,8.164227,0.316485,-12.463263,1.957513
12000,0.835576,-1.304840,8.248025,0.453890,-15.226622,0.522398
16000,0.864307,-1.266533,8.487445,1.385188,-18.447996,-0.821113
20000,0.926556,-1.221043,8.576031,2.988241,-21.791508,-2.836380
24000,1.046266,-1.271321,8.628703,4.850837,-25.135019,-5.111189
28000,1.063026,-1.295263,8.829816,7.354653,-28.615934,-7.691342
32000,1.118092,-1.288081,8.829816,10.759233,-32.249523,-10.347831
36000,1.101333,-1.290475,8.829816,14.667630,-36.921280,-13.767678
40000,0.873884,-1.307234,8.750807,17.995874,-43.272423,-16.973785
44000,0.651223,-1.283292,8.712500,20.896639,-51.180820,-19.065388
48000,0.471658,-1.369483,8.748413,23.858471,-58.967079,-20.485235
52000,0.543484,-1.347936,8.860941,26.881372,-63.623569,-21.324930
56000,0.780510,-1.230620,9.018958,26.713432,-63.501431,-21.706610
60000,0.763750,-1.276109,8.954314,28.698166,-60.310593,-20.637907
64000,0.476446,-1.130063,8.705317,27.950073,-58.509064,-19.279127
68000,0.533907,-1.043872,8.667010,26.530226,-55.058681,-17.370731
72000,0.507571,-0.938527,8.595184,23.980608,-50.829674,-14.744778
76000,0.617704,-0.835576,8.463503,20.576029,-46.509064,-11.874549
80000,0.849942,-0.758962,8.422802,17.614195,-42.906010,-9.676076
84000,1.115698,-0.687136,8.365341,14.774501,-39.974712,-8.042487
88000,1.508347,-0.579397,8.540117,12.148546,-38.692272,-8.042487
92000,1.754950,-0.469264,8.465898,11.308852,-38.051048,-9.309663
96000,1.793257,-0.450110,8.418014,10.881371,-39.516697,-10.790579
100000,1.812411,-0.392649,8.463503,10.927173,-43.684635,-13.172258
104000,1.855506,-0.469264,8.635885,12.606562,-50.707539,-16.851646
108000,1.692701,-0.490811,8.729259,15.827935,-57.913643,-20.195158
112000,1.103727,-0.502782,8.652645,18.942440,-68.615929,-23.737143
116000,0.835576,-0.579397,8.664616,22.392822,-79.318222,-26.088287
120000,0.833182,-0.500388,8.518570,25.797401,-88.157913,-27.966150
124000,0.794875,-0.423774,8.518570,27.308853,-94.921272,-29.492868
128000,0.672771,-0.440533,8.674192,29.675264,-101.257149,-30.256227
132000,0.608127,-0.514753,8.628703,30.560760,-110.554863,-31.034853
136000,0.818817,-0.433351,8.997410,32.087479,-109.531960,-29.126455
140000,0.667982,-0.215478,8.918402,29.629463,-115.348755,-29.218060
144000,1.084573,-0.311246,9.050082,28.789768,-112.280052,-27.355463
148000,1.165976,-0.227449,8.801085,27.919540,-108.783867,-25.706610
152000,1.127669,-0.083797,8.520964,25.263052,-103.806770,-22.698975
156000,1.163582,0.043096,8.410830,21.873737,-101.241882,-20.240959
160000,1.369483,0.057461,8.420407,18.789768,-102.967079,-18.760044
164000,1.721431,0.217872,8.327033,16.362288,-103.440361,-17.569204
168000,1.975216,0.213084,8.480263,14.163814,-103.028145,-16.469969
172000,2.178724,0.172383,8.578424,12.972974,-103.608299,-16.088289
176000,2.360683,0.196325,8.465898,12.316485,-104.112114,-15.752412
180000,2.449268,0.196325,8.432379,12.041677,-106.783867,-16.439434
184000,2.583344,0.179565,8.446744,13.003509,-110.890739,-17.431799
188000,2.568978,0.122104,8.552089,12.347019,-116.005241,-18.240959
192000,2.427721,-0.067038,8.556877,12.072210,-124.096848,-19.706610
196000,2.346318,-0.256180,8.729259,12.056943,-130.157928,-19.676075
200000,2.387019,-0.380678,8.700529,12.240149,-133.241898,-18.897449
204000,2.451663,-0.354342,8.808268,12.102745,-137.272430,-18.714243
208000,2.693477,-0.466869,9.047688,13.095111,-141.333496,-18.744778
212000,2.959233,-0.502782,9.275137,13.904271,-142.585403,-18.851646
216000,3.160346,-0.591368,9.430760,14.499691,-143.913651,-19.553938
220000,3.320758,-0.672771,9.670180,14.438622,-144.951813,-20.790579
224000,3.145981,-0.682347,9.940725,14.224882,-144.753342,-21.141724
228000,2.999935,-0.818817,10.187328,13.476790,-144.493805,-20.729509
232000,3.148375,-0.802058,10.529699,13.659997,-141.028152,-19.065388
236000,3.457227,-0.897826,10.761936,15.308851,-136.402191,-17.431799
240000,3.871424,-0.907402,11.137826,19.492058,-130.356400,-16.179892
244000,3.967192,-0.842759,11.135432,23.537861,-125.608299,-15.615006
248000,4.043807,-0.785298,10.900801,26.408089,-122.386925,-15.172258
252000,4.199430,-0.730232,10.386047,27.507326,-122.646461,-16.378365
256000,4.355053,-0.720655,10.146626,29.018776,-122.035782,-16.882181
260000,4.371812,-0.682347,9.919178,31.263052,-121.699898,-18.317295
264000,4.369418,-0.646434,9.646238,33.995876,-122.386925,-19.370731
268000,4.206613,-0.639252,9.509769,36.316486,-124.249519,-20.256227
272000,4.017470,-0.581791,9.380483,38.499691,-127.379288,-21.324930
276000,3.924097,-0.622492,9.220071,41.034042,-129.944183,-21.874548
280000,3.768473,-0.608127,8.765172,43.095112,-132.203720,-22.271494
284000,3.581726,-0.610521,8.341399,44.591297,-135.394562,-21.706610
288000,3.548207,-0.672771,8.248025,45.797401,-138.722809,-21.126455
292000,3.749320,-0.711078,8.015787,46.728699,-141.012878,-20.882181
296000,3.727772,-0.718261,7.867347,48.881371,-142.554871,-20.958517
300000,3.497929,-0.732626,7.491457,49.782135,-144.096848,-20.347830
304000,3.387795,-0.639252,7.091625,49.980610,-145.318222,-19.279127
308000,3.150769,-0.591368,6.677429,48.041676,-146.310593,-18.256227
312000,3.356671,-0.725443,6.725313,47.507324,-146.936554,-17.263861
316000,3.074155,-0.756568,6.742072,48.026409,-146.218994,-15.844014
320000,2.894590,-0.639252,6.423643,47.659996,-144.615936,-12.531037
324000,3.284845,-0.493206,6.098032,46.377556,-142.386932,-9.447068
328000,3.670311,-0.387861,5.947197,45.553127,-138.631210,-7.294395
332000,3.861847,-0.148441,5.530606,44.041676,-136.035782,-5.599739
336000,4.046201,-0.086191,5.317522,43.690533,-134.753342,-4.500503
340000,3.916914,0.052672,5.015852,43.659996,-133.883118,-2.760045
344000,3.919308,0.167594,4.833893,42.621830,-132.875473,-0.073022
348000,4.118027,0.366313,4.841076,40.743969,-130.615936,2.598734
352000,4.383783,0.586579,4.718972,37.934807,-130.661743,5.285757
356000,4.843470,0.737414,4.611232,35.644730,-128.783875,7.621635
360000,5.284003,0.857124,4.556166,32.255417,-126.570129,9.056749
364000,5.949591,0.967257,4.620809,29.766869,-126.493790,8.781940
368000,6.339846,1.182736,4.532224,28.408089,-127.715164,6.827742
372000,6.605602,1.197101,4.505888,27.385189,-131.257156,4.064383
376000,7.038953,1.201889,4.532224,27.812670,-133.928909,0.232322
380000,6.979098,1.156399,4.627992,28.484425,-137.928909,-4.103556
384000,6.828263,1.182736,4.673482,29.247784,-144.020523,-8.485235
388000,6.871359,0.921768,5.176264,31.705799,-148.768616,-11.935617
392000,6.579266,0.773327,5.468357,33.950073,-153.073959,-15.065389
396000,6.129156,0.605733,5.614403,37.125645,-156.173187,-16.210426
400000,5.837064,0.323217,5.841852,42.118011,-158.096848,-16.149357
404000,5.628768,0.244209,5.935226,46.347019,-157.745712,-14.408900
408000,5.293580,0.098162,5.755661,48.087479,-158.753342,-12.760045
412000,5.044583,-0.023942,5.444415,50.072212,-159.516708,-9.889816
416000,4.750096,-0.059855,5.109226,51.889004,-161.012878,-6.561571
420000,4.527435,-0.045490,4.711789,53.293587,-162.906021,-2.515770
424000,4.604050,0.004788,4.244920,53.644730,-164.157928,2.308658
428000,4.709395,0.000000,4.015076,53.476791,-165.364029,6.598734
432000,4.960786,0.059855,3.689465,53.827938,-166.738083,11.148352
436000,5.470751,0.014365,3.490746,53.186714,-166.356400,14.904078
440000,5.947197,0.052672,3.339911,52.377556,-165.165558,17.621635
444000,6.392519,0.203507,3.045424,50.209618,-163.944183,19.377361
448000,6.667852,0.071826,2.916138,48.667633,-164.127396,19.926979
452000,6.926425,0.181959,3.031059,47.064579,-162.890747,21.056749
456000,7.481880,0.093374,3.294421,45.507324,-161.730438,20.812475
460000,7.673417,0.009577,3.315969,44.805035,-160.447998,19.820108
464000,7.563283,0.105345,3.050213,44.896641,-162.478531,18.919346
468000,7.544129,0.098162,2.906561,45.461525,-166.692276,18.018581
472000,7.620744,0.007183,3.021482,45.980610,-170.860214,17.316292
476000,7.714118,-0.088585,3.201048,46.316486,-174.692276,16.614002
480000,7.802703,-0.205901,3.442862,46.911907,-176.799149,16.201788
484000,7.718906,-0.284910,3.622427,47.324120,-179.333496,15.759040
488000,7.565677,-0.409408,3.548207,47.797401,-179.562500,16.873545
492000,7.369353,-0.471658,3.354277,47.156181,-178.585403,19.148354
496000,7.206547,-0.486023,3.136404,45.766869,-177.486160,21.865910
500000,7.256825,-0.512359,2.801216,44.713432,-176.875473,24.995682
504000,7.326257,-0.486023,2.501941,44.087479,-175.348770,28.033850
508000,7.275979,-0.469264,2.066196,42.179081,-176.631210,30.598734
512000,7.469909,-0.517148,1.714248,39.476791,-179.135025,33.270489
516000,7.405266,-0.428562,1.465251,36.133282,-181.593033,35.743774
520000,7.706935,-0.471658,1.125275,31.889006,-182.707535,37.606369
524000,7.821857,-0.507571,0.871489,27.873737,-183.593033,39.346825
528000,7.807492,-0.569820,0.629675,23.995876,-184.280060,41.255222
532000,7.565677,-0.486023,0.476446,19.583662,-187.516708,43.667439
536000,8.013393,-0.514753,0.337582,14.499691,-191.974716,45.820110
540000,8.724471,-0.507571,0.548272,6.896638,-192.264801,46.781940
544000,9.579201,-0.354342,0.277727,2.301218,-187.989990,46.949879
548000,10.273520,-0.179565,0.526724,-4.202599,-185.012878,45.072018
552000,10.845734,-0.131681,0.629675,-9.759851,-181.593033,41.087284
556000,10.975020,-0.105345,0.763750,-13.240767,-179.913651,36.812473
560000,10.785878,-0.234632,0.928950,-13.179698,-178.936554,33.239956
564000,11.204864,-0.390255,1.422156,-12.446874,-175.944183,28.125452
568000,10.805033,-0.366313,1.331176,-11.027026,-172.509064,23.667437
572000,10.201694,-0.519542,0.931344,-9.347637,-172.005249,20.949881
576000,9.662998,-0.457293,0.816423,-9.515575,-171.806778,19.972780
580000,9.512163,-0.658405,1.046266,-11.057561,-170.646469,19.575834
584000,9.428367,-0.696713,1.479617,-9.439240,-167.272430,20.446062
588000,9.198523,-0.773327,1.771709,-6.965958,-164.325867,21.988047
592000,9.169792,-0.811634,1.697489,-3.133896,-159.501434,25.453697
596000,9.155427,-0.732626,1.580173,-1.332370,-154.600677,28.644537
600000,9.423578,-0.694318,1.465251,-1.485041,-148.661743,32.094917
604000,9.605537,-0.521936,1.388637,-2.599545,-143.028152,34.781940
608000,9.734824,-0.457293,1.465251,-5.408706,-139.028152,37.041481
612000,9.957485,-0.375890,1.699883,-6.965958,-134.509064,39.865910
616000,10.307038,-0.335188,2.070984,-6.309469,-128.371658,42.415527
620000,10.687716,-0.141258,2.001553,-4.553743,-120.554863,44.491863
624000,10.874464,-0.023942,1.927332,-5.042294,-114.325851,45.423161
628000,10.912771,0.143652,1.757344,-5.179698,-108.814407,46.323925
632000,10.733206,0.272939,1.587356,-4.553743,-104.768600,47.621635
636000,10.864887,0.418985,1.613692,-8.538477,-102.890739,47.896446
640000,11.669339,0.385466,1.472434,-4.675881,-95.364021,49.453697
644000,12.088325,0.584185,1.484405,-5.698782,-89.959442,48.140720
648000,12.737153,0.691924,1.539472,-5.439240,-83.501427,46.980415
652000,13.421895,0.766145,1.860295,-5.301835,-76.066315,43.926979
656000,13.922283,0.787692,1.635240,-2.416339,-68.600662,39.591103
660000,13.697227,0.854730,1.122881,0.102745,-64.646461,34.552933
664000,13.443442,1.039083,0.869095,0.881371,-64.524330,29.346827
668000,13.505692,1.110910,0.799663,1.049310,-63.165554,24.949881
672000,13.390770,1.125275,0.857124,1.843203,-59.364025,21.468964
676000,13.022063,1.043872,0.768539,4.911905,-55.165554,19.010948
680000,12.418724,1.067814,0.256180,8.133280,-53.409828,18.537666
684000,12.215217,1.218649,-0.359130,9.293585,-50.844944,18.888811
688000,12.299014,1.434127,-0.725443,6.606562,-45.837307,19.423162
692000,12.495338,1.470040,-0.818817,3.858470,-37.593033,19.957514
696000,12.559982,1.438915,-0.579397,2.041676,-27.104485,21.301025
700000,12.919112,1.364695,-0.016759,2.713432,-14.295324,23.102551
704000,13.036428,1.288081,0.165200,5.263051,1.155058,24.629269
708000,12.880805,1.379060,-0.335188,6.331753,12.544371,25.270491
712000,12.650962,1.474828,-0.852336,5.324119,17.689409,24.980413
716000,12.437878,1.276109,-1.024718,4.789768,18.101622,23.911713
720000,12.095507,1.206678,-1.077391,4.453890,13.490935,22.186522
724000,12.284649,1.079785,-0.751779,6.056943,16.147425,22.858276
728000,12.466608,1.074997,-0.610521,6.988241,19.200859,23.163620
732000,12.579136,0.967257,-0.351948,7.583661,21.109257,22.232323
736000,12.749125,1.003170,-0.244209,7.904272,25.307730,21.438429
740000,12.957419,0.979228,-0.177171,7.140913,30.773378,20.125452
744000,13.172897,0.849942,-0.009577,7.843203,36.239029,17.636902
748000,13.220781,0.646434,-0.098162,9.507325,40.116890,14.888810
752000,12.792220,0.524330,-0.497994,11.995874,40.910782,12.522398
756000,12.483368,0.517148,-0.914585,13.049310,38.864983,10.537665
760000,12.500127,0.390255,-1.041478,13.766867,36.880249,8.415527
764000,12.490550,0.244209,-1.120486,13.843203,33.735210,5.881177
768000,12.272678,0.138864,-1.003170,13.950073,32.651241,4.384994
772000,12.275072,0.043096,-1.015141,14.408089,32.926048,2.705604
776000,11.997345,-0.131681,-1.371878,15.430989,33.750477,1.239955
780000,11.015722,-0.208296,-2.073379,14.637096,30.116890,0.949879
784000,10.642226,-0.313640,-2.377442,13.095111,24.651241,1.835375
788000,10.692505,-0.325611,-2.322376,7.140913,19.490936,2.094917
792000,10.714052,-0.308852,-2.023100,4.423356,20.544371,3.270490
796000,10.259154,-0.354342,-2.154782,2.972974,19.017653,4.644536
800000,10.093954,-0.495600,-1.946486,-0.462140,17.750477,6.919345
804000,9.995792,-0.545878,-1.690306,-4.355270,15.552004,8.430795
808000,10.163386,-0.497994,-1.563414,-5.897255,16.773378,11.102551
812000,10.522516,-0.464475,-1.072602,-7.897255,23.613073,13.453695
816000,10.352529,-0.490811,-1.259350,-8.385805,25.246660,14.736138
820000,10.211270,-0.493206,-1.039083,-9.714049,24.162691,15.667436
824000,10.271125,-0.550666,-0.814029,-10.614813,24.620707,17.499498
828000,10.551247,-0.363919,-0.620098,-9.958323,24.345898,18.125452
832000,11.405977,-0.536301,-0.136469,-7.240767,24.605440,17.270491
836000,11.738770,-0.476446,-0.062249,-4.523210,25.185593,14.781940
840000,11.587936,-0.308852,-0.007183,-1.454507,23.475668,12.247588
844000,11.365275,-0.373495,-0.110133,2.728699,18.605440,9.636902
848000,11.283873,-0.313640,0.004788,3.507325,12.788646,7.087284
852000,11.329363,-0.509965,0.119710,7.782134,11.384066,6.614001
856000,11.061212,-0.435745,-0.079009,10.285952,9.185592,5.285757
860000,10.891224,-0.311246,-0.409408,10.316485,7.872615,5.591101
864000,11.104307,-0.337582,-0.569820,9.140913,8.025287,5.743773
868000,11.362882,-0.277727,-0.620098,7.965341,8.010019,5.301024
872000,11.547235,-0.232238,-0.553061,5.140913,8.788646,4.262856
876000,11.494562,-0.177171,-0.462081,3.430989,11.964218,4.033849
880000,11.439496,-0.095768,-0.509965,1.156180,13.719943,3.911711
884000,11.358093,0.016759,-0.466869,-1.027026,14.330630,3.820108
888000,11.394006,-0.007183,-0.466869,-3.332370,13.964218,3.102551
892000,11.317391,-0.052672,-0.158017,-4.187331,14.055821,2.858276
896000,11.324574,-0.069432,-0.138864,-4.813286,13.719943,2.079650
900000,11.305421,0.035913,-0.011971,-4.981225,12.987119,1.163620
904000,11.379641,0.004788,0.117316,-4.294202,12.162691,0.125452
908000,11.528081,0.059855,-0.004788,-3.881988,10.468035,-1.508136
912000,11.355699,0.095768,-0.074220,-3.744583,7.979486,-3.844014
916000,11.314998,-0.026336,0.059855,-3.805652,4.544371,-6.271495
920000,11.226412,-0.045490,0.090980,-3.988858,3.613073,-8.225694
924000,11.022904,-0.112527,0.256180,-3.759850,3.353531,-9.615006
928000,10.817003,-0.229843,0.342371,-3.500308,2.926050,-10.439434
932000,10.699687,-0.311246,0.342371,-3.240766,2.803913,-11.447068
936000,10.467450,-0.383072,0.296881,-3.530843,3.200860,-11.691342
940000,10.251971,-0.505177,0.153229,-3.790385,3.017654,-11.401266
944000,9.902418,-0.519542,0.122104,-4.736950,2.864982,-10.531037
948000,9.825804,-0.474052,-0.007183,-6.049927,2.345898,-8.729510
952000,9.931149,-0.392649,-0.081403,-7.988858,3.017654,-7.599739
956000,10.187328,-0.397437,0.134075,-9.836186,4.315363,-6.576838
960000,10.433931,-0.318429,0.323217,-9.820919,7.567272,-5.950884
964000,10.527305,-0.301669,0.371101,-10.309469,9.811546,-6.103556
968000,10.407595,-0.265756,0.153229,-10.614813,11.246661,-6.149357
972000,9.986216,-0.392649,-0.081403,-10.477407,9.689409,-5.935617
976000,9.938332,-0.313640,-0.292093,-9.729317,7.139791,-4.943251
980000,10.144233,-0.330400,-0.122104,-10.385805,6.284829,-4.179892
984000,10.330980,-0.318429,0.043096,-10.798018,7.796279,-3.645541
988000,10.472239,-0.344765,0.318429,-10.721683,9.536737,-3.569205
992000,10.400413,-0.366313,0.277727,-9.530843,10.330630,-3.447068
996000,10.299856,-0.339977,0.339977,-8.584278,9.475668,-3.889816
1000000,10.295067,-0.469264,0.430956,-7.866721,10.605439,-3.553938
1004000,10.287885,-0.476446,0.428562,-7.210233,12.742844,-3.431800
1008000,10.254366,-0.476446,0.428562,-7.027026,14.315363,-2.744777
1012000,10.230424,-0.507571,0.636858,-6.843820,15.338264,-2.363098
1016000,10.297462,-0.519542,0.763750,-6.599545,16.193226,-2.134090
1020000,10.273520,-0.438139,1.027112,-6.462141,16.910784,-1.737144
1024000,10.486604,-0.411803,1.359907,-5.393438,19.460402,-0.760045
1028000,10.953473,-0.378284,1.817199,-3.088094,25.399332,-0.179892
1032000,11.125855,-0.371101,1.714248,-0.324736,30.727577,-0.531037
1036000,10.910378,-0.220267,1.438915,1.018775,32.086357,-1.416533
1040000,10.812215,-0.138864,1.158794,1.751600,31.399332,-2.210426
1044000,10.704475,-0.143652,0.981623,2.224883,29.964218,-3.019587
1048000,10.699687,-0.107739,0.885855,2.530226,29.017653,-3.462335
1052000,10.718841,-0.083797,0.924162,3.201982,28.315363,-3.828747
1056000,10.831368,-0.184354,0.902614,4.499691,27.429867,-4.088289
1060000,10.809821,-0.155623,0.845153,5.614195,26.284828,-4.836380
1064000,10.711658,-0.222661,0.550666,5.537859,24.193226,-5.462335
1068000,10.584765,-0.193930,0.234632,4.866104,21.475668,-6.439434
1072000,10.632649,-0.196325,0.332794,3.400455,18.971851,-6.805846
1076000,10.560823,-0.311246,0.356736,2.392821,18.910784,-6.469968
1080000,10.362105,-0.260968,0.177171,1.018775,18.773378,-6.164625
1084000,10.170568,-0.177171,-0.035913,-0.599545,16.941317,-5.844014
1088000,10.278308,-0.172383,0.150835,-3.393438,14.758111,-6.149357
1092000,10.510546,-0.251391,0.222661,-5.454507,14.727577,-7.019587
1096000,10.297462,-0.241814,0.313640,-7.011759,13.918416,-7.966151
1100000,9.916783,-0.387861,0.418985,-8.172065,11.689409,-8.286762
1104000,9.765948,-0.371101,0.787692,-9.179698,9.460402,-8.027221
1108000,9.703699,-0.464475,1.077391,-9.194965,8.895515,-7.401266
1112000,9.660604,-0.445322,1.359907,-8.599545,9.368798,-6.592105
1116000,9.636662,-0.502782,1.448492,-7.561378,9.399332,-5.950884
1120000,9.607931,-0.445322,1.426944,-6.782751,8.834447,-5.279129
1124000,9.526528,-0.497994,1.529895,-5.881988,9.368798,-4.515770
1128000,9.526528,-0.454898,1.388637,-5.057561,9.964218,-3.324930
1132000,9.490616,-0.438139,1.185130,-4.156797,9.231394,-2.256228
1136000,9.670180,-0.313640,0.976834,-3.820919,8.483302,-1.309663
1140000,9.916783,-0.244209,1.041478,-4.630079,8.300096,-1.095922
1144000,10.357317,-0.229843,1.285686,-4.798018,9.964218,-1.248594
1148000,10.630256,-0.205901,1.477222,-3.515576,12.620707,-2.546304
1152000,10.594342,-0.193930,1.252167,-1.423972,12.697042,-3.874548
1156000,10.400413,-0.193930,0.861913,0.652363,9.857347,-5.355464
1160000,10.330980,-0.201113,0.675165,2.560760,5.948951,-6.805846
1164000,10.374076,-0.304064,0.287304,3.812669,3.231394,-7.966151
1168000,10.417171,-0.256180,0.232238,3.492058,1.216127,-9.080656
1172000,10.539276,-0.239420,0.282516,2.805035,-1.135018,-10.485236
1176000,10.472239,-0.174777,0.325611,1.950073,-2.371660,-11.218060
1180000,10.338163,-0.280122,0.430956,1.018775,-0.677003,-11.187526
1184000,9.971850,-0.275333,0.234632,-0.507942,0.345898,-10.576838
1188000,9.832987,-0.189142,0.227449,-2.538476,-0.051049,-9.111190
1192000,9.684546,-0.234632,0.354342,-5.027026,0.025287,-7.523403
1196000,9.737218,-0.251391,0.512359,-7.118629,2.345898,-5.828747
1200000,9.866506,-0.208296,0.536301,-8.523210,4.605440,-4.240961
1204000,10.038888,-0.225055,0.713472,-9.103362,7.017653,-3.309663
1208000,10.050858,-0.215478,0.943315,-8.630079,9.994752,-2.531037
1212000,10.146626,-0.129287,0.991199,-8.553743,11.872615,-2.011953
1216000,10.357317,-0.047884,0.957681,-8.645347,12.773378,-2.469968
1220000,10.661380,-0.172383,1.043872,-7.897255,13.414599,-4.027220
1224000,10.560823,-0.189142,1.103727,-6.553743,12.727577,-6.042487
1228000,10.208876,-0.318429,1.101333,-4.935423,10.040554,-7.691342
1232000,9.988609,-0.373495,1.173159,-3.439240,6.926051,-8.805846
1236000,10.034100,-0.445322,1.374272,-1.927789,6.040555,-9.233328
1240000,10.132261,-0.586579,1.517924,-0.202598,7.445135,-10.134090
1244000,9.957485,-0.612916,1.558625,1.064577,7.521471,-11.126457
1248000,9.665392,-0.739808,1.596933,2.988241,7.399333,-11.218060
1252000,9.363723,-0.871489,1.283292,5.415722,7.078722,-10.622641
1256000,9.179369,-0.802058,0.660800,6.408089,5.277195,-9.462335
1260000,9.102755,-0.725443,0.337582,5.629463,2.666508,-7.828747
1264000,9.193734,-0.718261,0.404620,5.034043,0.498570,-6.958518
1268000,9.311050,-0.648829,0.495600,3.553127,-0.524331,-6.118823
1272000,9.555259,-0.663194,0.687136,2.255417,0.758111,-4.989052
1276000,9.718064,-0.608127,0.770933,1.476791,4.651241,-3.828747
1280000,9.605537,-0.512359,0.691924,0.270684,6.819180,-2.836380
1284000,9.425972,-0.517148,0.488417,-0.294202,6.437501,-1.844014
1288000,9.318233,-0.481235,0.387861,-1.958324,5.445135,-1.004319
1292000,9.349358,-0.464475,0.354342,-3.057560,4.071089,0.140719
1296000,9.483433,-0.466869,0.588974,-4.233133,3.078722,0.934612
1300000,9.720459,-0.399832,0.881066,-4.645347,3.597806,0.965146
1304000,10.156203,-0.306458,0.957681,-5.530843,5.414600,1.148352
1308000,10.388441,-0.263362,1.103727,-4.675881,7.002387,0.171253
1312000,10.498574,-0.241814,1.110910,-4.034659,6.361165,-1.462335
1316000,10.627861,-0.256180,1.237802,-3.164430,4.819180,-3.721877
1320000,10.565612,-0.294487,1.398214,-1.591912,4.483303,-5.630273
1324000,10.268731,-0.378284,1.398214,-0.263667,4.101623,-6.668441
1328000,10.103531,-0.375890,1.527501,0.545493,3.078722,-7.172258
1332000,9.816227,-0.454898,1.592144,1.446256,3.032921,-7.065388
1336000,9.691729,-0.543484,1.568202,1.751600,4.758111,-6.240961
1340000,9.521740,-0.471658,1.671153,1.721066,7.307730,-4.836380
1344000,9.399636,-0.533907,1.486799,1.476791,9.017653,-3.141724
1348000,9.555259,-0.428562,1.491588,1.049310,10.666508,-1.874548
1352000,9.701305,-0.490811,1.505953,0.408088,13.368798,-0.408900
1356000,9.718064,-0.438139,1.185130,0.423356,15.063455,0.461329
1360000,9.524135,-0.330400,1.019930,-0.370538,14.468035,1.392627
1364000,9.598354,-0.258574,0.845153,-0.156797,13.643607,2.217055
1368000,9.768343,-0.225055,0.579397,0.331753,13.093989,2.659803
1372000,9.859323,-0.174777,0.397437,-0.324736,11.826814,2.690337
1376000,9.880871,-0.143652,0.344765,-0.813286,9.872615,2.552932
1380000,9.873688,-0.081403,0.325611,-1.500308,7.674142,2.751406
1384000,9.957485,-0.131681,0.435745,-2.446873,6.071089,2.675070
1388000,9.964667,-0.095768,0.672771,-3.714049,4.559639,2.736139
1392000,10.086772,-0.088585,0.967257,-4.462141,4.468035,2.583467
1396000,10.153810,-0.081403,1.094150,-4.110995,4.803913,2.522398
1400000,10.132261,-0.055067,1.094150,-3.958324,4.605440,1.850642
1404000,10.146626,0.007183,1.235408,-3.469774,3.032921,0.980413
1408000,10.304645,-0.155623,1.357512,-2.126262,1.674142,0.247589
1412000,10.302250,-0.043096,1.338359,-0.416339,1.887883,-0.546304
1416000,10.393229,-0.009577,1.312023,0.759233,2.773379,-1.248594
1420000,10.364499,-0.055067,1.338359,0.835569,3.460402,-2.103556
1424000,10.393229,0.000000,1.261744,1.003508,3.903150,-3.095922
1428000,10.172963,0.083797,1.151611,1.415722,4.071089,-3.462335
1432000,9.895236,0.014365,1.065420,1.721066,4.635974,-3.752411
1436000,9.804255,-0.064643,1.036689,1.522592,4.162692,-3.431800
1440000,9.672575,-0.033519,0.833182,0.881371,3.338264,-2.958518
1444000,9.574412,-0.074220,0.770933,-0.141530,3.032921,-1.767678
1448000,9.619903,-0.122104,0.916979,-1.378171,3.490936,-0.439434
1452000,9.727641,-0.093374,1.055843,-2.294202,4.574905,0.629268
1456000,9.823410,-0.090980,1.273715,-3.286568,6.254295,1.682703
1460000,10.058042,-0.033519,1.383849,-3.607178,8.895515,2.843009
1464000,10.230424,0.019154,1.472434,-3.805652,10.742844,2.705604
1468000,10.237606,0.016759,1.417367,-3.194965,10.895515,2.293390
1472000,10.153810,-0.129287,1.288081,-1.378171,8.926050,2.232322
1476000,9.981427,-0.035913,1.110910,-0.462140,5.704677,1.896444
1480000,10.137050,-0.026336,1.139640,0.102745,1.979486,1.652169
1484000,10.414778,0.016759,1.235408,1.110379,0.559638,1.010948
1488000,10.445902,-0.079009,1.146823,1.492058,0.177959,0.232322
1492000,10.419566,-0.043096,1.084573,1.034043,-1.241889,-0.118823
1496000,10.347740,-0.117316,1.048660,0.255417,-3.196087,-0.607373
1500000,10.237606,-0.181959,0.991199,-0.370538,-3.638835,-0.622640
1504000,10.196905,-0.143652,0.727837,-1.347636,-2.890743,0.354459
1508000,10.043676,-0.186748,0.737414,-3.881988,-3.165553,0.843009
1512000,10.328587,-0.174777,0.861913,-6.156797,-1.944179,1.499497
1516000,10.354922,-0.215478,1.077391,-7.591911,0.468035,2.064383
1520000,10.658986,-0.244209,1.096544,-8.553743,2.315363,2.140719
1524000,10.881647,-0.100556,1.290475,-8.828553,3.170325,1.362093
1528000,11.068395,0.035913,1.434127,-9.423973,3.475669,-0.805846
1532000,11.200075,-0.033519,1.704672,-8.859087,3.719944,-3.309663
1536000,11.054029,-0.038307,1.759738,-6.172065,4.086356,-5.080655
1540000,10.946290,-0.069432,1.912967,-3.943056,3.093989,-7.050121
1544000,10.766725,-0.119710,1.984793,-2.004125,2.803913,-8.073022
1548000,10.714052,-0.141258,2.142811,0.041676,3.231394,-8.927984
1552000,10.534488,-0.181959,2.118869,2.469157,4.116890,-9.004320
1556000,10.319010,-0.167594,1.896208,4.698165,4.956585,-8.622641
1560000,10.098742,-0.138864,1.589750,5.385188,4.773379,-8.347831
1564000,10.149021,-0.146046,1.570596,5.415722,5.170325,-7.447067
1568000,10.098742,-0.174777,1.539472,5.843203,6.193226,-6.485235
1572000,9.983821,-0.134075,1.134852,6.133279,7.399333,-5.492869
1576000,10.019734,-0.076614,0.744597,4.942440,7.216127,-4.210426
1580000,10.070012,-0.062249,0.715866,3.385188,6.697043,-3.370732
1584000,10.105926,-0.026336,0.735020,2.072211,6.147425,-3.156991
1588000,10.067618,-0.004788,0.612916,-0.263667,4.712310,-2.912716
1592000,10.034100,-0.040701,0.656011,-1.652980,4.971852,-2.149358
1596000,9.998186,-0.088585,0.806846,-3.347636,5.628341,-1.767678
1600000,9.892841,-0.057461,0.828394,-4.798018,4.880249,-1.385999
1604000,9.933543,-0.076614,0.988805,-5.943057,3.842081,-0.989052
1608000,9.933543,-0.126893,1.259350,-6.278934,3.948951,-0.958518
1612000,9.852140,-0.112527,1.182736,-6.126263,3.353531,-0.836380
1616000,9.902418,-0.100556,1.343147,-6.813286,2.055821,-0.714243
1620000,9.888053,-0.215478,1.563414,-6.507942,1.185592,-1.370732
1624000,9.770737,-0.342371,1.678335,-6.019393,1.552005,-1.462335
1628000,9.682152,-0.347159,1.745373,-5.393438,2.681776,-1.141724
1632000,9.686940,-0.265756,1.774103,-5.576645,3.689409,-0.531037
1636000,9.768343,-0.268151,1.898602,-4.935423,4.498569,-0.378365
1640000,9.897630,-0.234632,2.003947,-3.683514,5.322997,-0.882182
1644000,9.900024,-0.179565,1.869871,-1.607178,5.399333,-1.584472
1648000,9.897630,-0.213084,1.719037,0.576027,3.429867,-2.256228
1652000,10.089166,-0.220267,1.608904,3.446256,0.803913,-3.645541
1656000,10.127473,-0.160412,1.386243,5.293585,-1.364026,-5.294395
1660000,9.955091,-0.167594,1.453280,6.759233,-4.570133,-6.744777
1664000,9.840169,-0.263362,1.489193,8.118012,-7.669369,-7.782945
1668000,9.818622,-0.241814,1.539472,9.003509,-7.883110,-8.103557
1672000,9.466674,-0.320823,1.482011,9.537860,-7.150285,-7.095922
1676000,9.370906,-0.287304,1.498770,9.598928,-6.066316,-5.874548
1680000,9.296685,-0.304064,1.316811,9.186714,-4.524331,-3.905083
1684000,9.222465,-0.258574,1.051055,8.209616,-3.318224,-1.859281
1688000,9.325416,-0.272939,0.912191,7.614195,-1.959446,-0.011953
1692000,9.378088,-0.234632,0.565032,6.118012,-0.951812,2.033848
1696000,9.595961,-0.076614,0.404620,4.102745,0.223760,3.331558
1700000,9.945514,0.052672,0.550666,1.843203,1.689409,3.728505
1704000,9.830592,-0.007183,0.663194,-0.538476,3.506203,4.049116
1708000,9.866506,0.035913,0.756568,-3.149163,5.002387,4.186521
1712000,9.744401,-0.062249,0.919373,-5.439240,8.071088,5.453696
1716000,9.677363,-0.148441,1.118092,-7.164431,10.712310,6.812475
1720000,9.641450,-0.107739,1.242591,-8.630079,13.322997,7.942246
1724000,9.545682,-0.167594,1.175553,-9.347637,15.048187,9.682703
1728000,9.603143,-0.162806,1.328782,-9.317102,14.834447,10.476596
1732000,9.854534,-0.095768,1.369483,-9.042294,13.185592,11.362092
1736000,10.144233,-0.143652,1.594538,-8.187331,12.483302,11.072016
1740000,10.486604,-0.095768,1.522712,-6.767485,11.139791,9.255222
1744000,10.788273,-0.095768,1.651999,-4.370538,9.063455,6.812475
1748000,10.934319,-0.124498,1.814805,-2.110996,7.994752,3.545299
1752000,10.771513,-0.155623,1.960851,-0.126262,5.750478,0.293391
1756000,10.515334,-0.222661,1.970428,2.194348,2.330631,-2.286762
1760000,10.386047,-0.277727,2.039860,4.408089,0.468035,-4.714243
1764000,10.113108,-0.313640,2.018312,7.018775,-0.295324,-5.844014
1768000,9.993398,-0.359130,2.023100,9.003509,-0.371659,-6.958518
1772000,9.658210,-0.512359,1.970428,10.743966,0.208493,-6.576838
1776000,9.483433,-0.488417,1.651999,10.591294,2.345898,-5.462335
1780000,9.265560,-0.418985,1.572991,9.782134,3.613073,-3.966152
1784000,9.131485,-0.452504,1.525106,9.003509,5.002387,-2.073022
1788000,9.105149,-0.397437,1.383849,7.980608,7.689410,0.446062
1792000,9.258378,-0.268151,1.273715,6.118012,11.735210,2.659803
1796000,9.368511,-0.203507,1.182736,3.843203,15.155058,4.949879
1800000,9.507375,-0.090980,1.012747,1.614195,16.971851,6.690337
1804000,9.734824,-0.086191,0.900220,0.179081,17.613073,7.407895
1808000,10.062830,-0.031125,1.005565,-0.507942,18.025288,7.377360
1812000,10.086772,-0.016759,0.957681,-0.859087,17.429867,6.614001
1816000,10.084377,0.026336,0.964863,-0.889621,15.429867,5.881177
1820000,10.024523,0.043096,0.837971,-0.874354,11.826814,4.949879
1824000,10.275913,0.031125,1.039083,-0.950690,8.269562,3.804841
1828000,10.426748,0.031125,1.273715,-0.217866,5.185593,2.384994
1832000,10.465055,0.028730,1.618480,0.927172,2.330631,0.507131
1836000,10.409989,-0.002394,1.764527,2.179081,0.849715,-1.111190
1840000,10.208876,-0.079009,2.070984,3.751600,0.269562,-1.889816
1844000,9.952697,-0.028730,2.008735,4.911905,1.063455,-2.073022
1848000,9.703699,0.023942,1.836353,5.919539,2.345898,-0.989052
1852000,9.485827,0.004788,1.699883,6.194348,3.903150,0.781940
1856000,9.311050,0.126893,1.455675,5.736333,3.261928,1.697971
1860000,9.296685,0.093374,1.300052,4.972974,3.613073,3.484231
1864000,9.442732,0.217872,1.206678,3.782134,5.322997,5.209421
1868000,9.588778,0.337582,1.017536,2.606562,6.620707,7.010948
1872000,9.801862,0.325611,0.873884,1.079844,7.017653,8.018581
1876000,9.907207,0.418985,0.711078,-0.614812,7.216127,8.766672
1880000,10.084377,0.486023,0.622492,-3.072828,8.345898,9.163619
1884000,10.302250,0.509965,0.646434,-5.530843,8.758111,8.751406
1888000,10.481815,0.474052,0.818817,-7.301835,8.574905,8.018581
1892000,10.690110,0.421380,0.995988,-8.721683,8.361164,6.827742
1896000,10.776301,0.320823,1.091756,-9.225499,7.903150,5.301024
1900000,10.797850,0.265756,1.134852,-9.210233,6.315363,3.713238
1904000,10.836157,0.112527,1.376666,-8.614813,3.857348,1.453696
1908000,10.840945,0.086191,1.601721,-7.469774,2.162692,-0.622640
1912000,10.702082,0.028730,1.798046,-5.897255,0.620707,-2.256228
1916000,10.706870,-0.177171,2.087744,-3.332370,-0.264789,-3.508136
1920000,10.723629,-0.031125,1.900996,-2.156797,-0.417461,-4.943251
1924000,10.783484,-0.165200,2.003947,-1.805652,0.223760,-6.317297
1928000,10.606314,-0.258574,1.982399,-1.362904,0.513837,-7.630273
1932000,10.244789,-0.263362,1.948880,-0.996492,0.895516,-7.905083
1936000,9.919178,-0.287304,1.872266,-0.752217,0.864982,-7.645541
1940000,9.713276,-0.361524,1.867477,-0.843820,0.147424,-6.866915
1944000,9.653421,-0.481235,1.680730,-0.950690,0.147424,-5.309663
1948000,9.686940,-0.457293,1.628057,-1.546110,1.063455,-4.057755
1952000,9.677363,-0.430956,1.723825,-2.172064,2.239028,-2.973785
1956000,9.923966,-0.447716,1.829170,-3.072828,3.231394,-2.576838
1960000,10.053253,-0.500388,2.023100,-2.736950,5.506203,-2.225693
1964000,9.969456,-0.524330,2.109292,-1.530843,8.864982,-1.630274
1968000,9.878476,-0.418985,1.850718,-1.210232,10.590172,-1.462335
1972000,9.737218,-0.464475,1.640028,-1.286568,9.872615,-0.989052
1976000,9.691729,-0.423774,1.668759,-1.103362,8.559638,-1.019587
1980000,9.756371,-0.344765,1.611298,-0.828552,6.895516,-1.187526
1984000,9.792285,-0.397437,1.745373,-0.187331,5.567272,-0.790579
1988000,9.706094,-0.378284,1.520318,0.423356,4.803913,-0.866915
1992000,9.878476,-0.335188,1.462857,0.835569,4.086356,-0.866915
1996000,9.813833,-0.349553,1.189918,1.614195,2.376432,-0.836380
