time_us,ax,ay,az,gx,gy,gz
0,0.770933,-1.323994,9.162610,7.889005,-12.188454,-4.011953
4000,0.656011,-1.276109,9.114726,8.835569,-11.989981,-5.019587
8000,0.620098,-1.173159,8.908825,9.079844,-11.211354,-5.431800
12000,0.464475,-1.154005,8.578424,9.308852,-10.615934,-5.431800
16000,0.440533,-1.194707,8.372523,9.018776,-9.501431,-5.340197
20000,0.160412,-1.096544,8.149862,7.873737,-9.409828,-4.683709
24000,0.138864,-1.077391,8.221688,6.743966,-10.325858,-4.363098
28000,0.153229,-1.019930,8.224083,5.736333,-10.005248,-3.447068
32000,0.227449,-0.967257,8.245630,4.774501,-8.875477,-2.286762
36000,0.184354,-0.960075,8.288726,3.812669,-7.058682,-1.447067
40000,0.150835,-0.993594,8.262390,2.988241,-5.898377,-0.027220
44000,0.098162,-0.933739,8.248025,1.873737,-4.951812,0.873543
48000,0.081403,-0.900220,8.159439,0.285951,-4.539598,2.079650
52000,0.074220,-0.864307,8.190564,-1.042293,-4.386927,3.255223
56000,0.215478,-0.871489,8.274361,-2.355270,-4.127385,4.201787
60000,0.284910,-0.859518,8.288726,-3.271301,-3.608301,4.965147
64000,0.380678,-0.806846,8.566454,-3.729316,-2.814408,5.499497
68000,0.488417,-0.876278,8.712500,-3.714049,-2.890743,5.346826
72000,0.478840,-0.809240,8.700529,-3.881988,-3.440362,5.346826
76000,0.454898,-0.854730,8.746018,-4.294202,-5.226621,4.843009
80000,0.474052,-0.811634,8.877700,-4.462141,-7.470896,4.400261
84000,0.715866,-0.873884,9.121908,-3.591912,-9.684637,3.636902
88000,0.828394,-0.835576,9.294291,-2.141530,-11.440362,2.140719
92000,0.823605,-0.869095,9.349358,-1.149163,-13.822042,0.873543
96000,0.802058,-0.957681,9.373300,1.201982,-16.142653,-0.637907
100000,0.754174,-1.003170,9.411607,3.705798,-19.073950,-2.118823
104000,0.782904,-1.022324,9.514558,6.056943,-22.142653,-3.523403
108000,0.835576,-1.019930,9.449914,8.285952,-24.218988,-4.958518
112000,0.751779,-1.024718,9.552865,10.866104,-26.173187,-5.813479
116000,0.629675,-1.077391,9.519346,12.316485,-28.020515,-6.744777
120000,0.478840,-1.036689,9.294291,13.476790,-29.898378,-7.065388
124000,0.411803,-0.995988,9.162610,13.904271,-30.463263,-7.034853
128000,0.294487,-1.091756,9.167398,13.873737,-31.135019,-6.576838
132000,0.160412,-1.089362,8.959103,14.453890,-32.906010,-6.042487
136000,0.107739,-1.027112,8.932767,14.209615,-35.012882,-5.737144
140000,0.158017,-1.036689,8.913613,13.858470,-35.715172,-5.050121
144000,0.112527,-1.005565,9.016563,13.064577,-35.989979,-4.760045
148000,0.057461,-1.058237,9.117120,12.118012,-36.967079,-4.118823
152000,0.191536,-1.089362,8.980651,13.782134,-36.982346,-3.844014
156000,0.050278,-1.005565,8.777143,13.400455,-38.707539,-3.401266
160000,0.126893,-0.931344,8.626308,13.568394,-41.760971,-4.057755
164000,0.241814,-0.972046,8.669404,14.713431,-45.364025,-5.111189
168000,0.141258,-0.962469,8.494628,15.507325,-50.218987,-6.378365
172000,0.019154,-0.974440,8.633492,17.308851,-55.928913,-7.294395
176000,0.059855,-1.072602,8.559271,19.415722,-61.928913,-8.775312
180000,-0.136469,-1.046266,8.549694,21.690533,-69.165550,-9.905083
184000,-0.186748,-1.036689,8.564059,24.163815,-76.554863,-10.714244
188000,-0.196325,-1.058237,8.554482,26.224884,-83.409821,-11.019587
192000,-0.198719,-1.000776,8.559271,28.194349,-90.264786,-11.263862
196000,-0.129287,-0.993594,8.552089,29.950073,-95.486160,-11.004320
200000,-0.011971,-0.972046,8.635885,31.064577,-99.516693,-10.698977
204000,0.313640,-0.936133,8.746018,31.873737,-101.669365,-10.088289
208000,0.565032,-0.900220,8.839393,32.530224,-101.913643,-10.027221
212000,0.725443,-0.909797,8.734048,32.285950,-102.173180,-9.889816
216000,0.823605,-0.847547,8.856153,32.133278,-102.478523,-9.462335
220000,0.962469,-0.785298,8.805874,32.270683,-101.883110,-8.668442
224000,1.161188,-0.861913,8.841787,32.087479,-100.890739,-8.271495
228000,1.242591,-0.787692,8.657434,31.308853,-99.165550,-7.447067
232000,1.233014,-0.636858,8.489840,29.904272,-98.005241,-7.202793
236000,1.448492,-0.763750,8.461109,29.843204,-96.936539,-6.454701
240000,1.766921,-0.814029,8.013393,28.759233,-101.501427,-7.615006
244000,1.994370,-0.711078,8.279149,28.499693,-94.890739,-7.187525
248000,1.553837,-0.521936,8.010999,27.156181,-104.249519,-10.225694
252000,1.977611,-0.524330,7.797915,28.072212,-110.356392,-11.340198
256000,2.336741,-0.529119,7.963115,29.140913,-113.257149,-13.019587
260000,2.324770,-0.512359,7.987057,30.545494,-118.692268,-15.477602
264000,2.492364,-0.502782,7.884106,31.415724,-124.539597,-17.477602
268000,2.552219,-0.502782,7.967903,31.950073,-131.012878,-20.332563
272000,2.614468,-0.457293,8.032547,32.285950,-135.944183,-22.195158
276000,2.889802,-0.536301,8.073248,33.324120,-139.440369,-24.469967
280000,3.038242,-0.433351,7.979874,33.690533,-143.043427,-27.294395
284000,3.014300,-0.407014,8.049306,34.530224,-145.241898,-29.508135
288000,3.145981,-0.339977,8.159439,34.927174,-148.707535,-31.767677
292000,3.414132,-0.397437,8.058883,36.362289,-153.348770,-34.240959
296000,3.648763,-0.414197,8.231265,37.736332,-154.768616,-36.775311
300000,3.773262,-0.414197,8.161834,38.255417,-155.898376,-39.645538
304000,3.818752,-0.339977,8.080431,38.209618,-157.058685,-42.500504
308000,3.842694,-0.289698,8.106767,37.598930,-153.455627,-43.309662
312000,3.593697,-0.222661,8.169016,37.003510,-151.470901,-44.088287
316000,3.383007,-0.287304,8.044518,36.392822,-152.051056,-44.424168
320000,3.490746,-0.304064,8.080431,35.766869,-151.180817,-44.011951
324000,3.818752,-0.229843,8.075643,35.858471,-149.226624,-44.134090
328000,3.701436,-0.167594,7.819463,33.843204,-148.310593,-44.637905
332000,3.785233,-0.172383,7.730877,31.995876,-147.608307,-45.065388
336000,3.797204,-0.213084,7.678205,31.369921,-146.707535,-44.729511
340000,3.545813,-0.239420,7.702147,30.682898,-147.547241,-44.424168
344000,3.634398,-0.339977,7.706935,29.919540,-149.944183,-43.889816
348000,3.708618,-0.347159,7.647080,29.919540,-151.318222,-43.599739
352000,3.538630,-0.347159,7.441179,29.690533,-152.906021,-43.233326
356000,3.371036,-0.306458,7.333440,29.782135,-156.081589,-41.981419
360000,3.105280,-0.320823,7.436390,29.721066,-160.692276,-40.393631
364000,2.995146,-0.387861,7.465121,29.614197,-165.379303,-37.599739
368000,2.947262,-0.409408,7.445967,28.896639,-168.173187,-34.637905
372000,2.916138,-0.421380,7.546524,28.377556,-170.005249,-31.355463
376000,3.040636,-0.373495,7.601591,28.637096,-170.814407,-26.927982
380000,3.306392,-0.366313,7.560889,28.988241,-170.096848,-22.164623
384000,3.514688,-0.371101,7.589619,29.705799,-169.180817,-18.195158
388000,3.909731,-0.244209,7.340622,30.026409,-168.295334,-14.607373
392000,4.316746,-0.098162,7.144298,29.369921,-168.936554,-12.546305
396000,4.721366,-0.067038,7.084443,29.095112,-170.646469,-11.599740
400000,4.972757,-0.079009,7.182605,28.805037,-169.058685,-10.592106
404000,5.331887,-0.050278,7.295133,29.400455,-164.463272,-9.431801
408000,5.729325,0.052672,7.513005,31.049311,-158.280060,-8.256227
412000,5.805939,0.095768,7.354988,33.446255,-152.936554,-7.950884
416000,5.738902,0.239420,6.957550,35.461525,-151.791504,-7.615006
420000,5.861006,0.304064,7.098808,37.278316,-152.051056,-8.088289
424000,6.011840,0.301669,7.034164,39.461525,-153.669373,-9.340198
428000,6.107608,0.265756,6.866570,41.934807,-155.730438,-10.927984
432000,5.832275,0.246603,6.811504,44.698166,-157.898376,-12.057755
436000,5.492299,0.090980,6.658275,48.652363,-159.928909,-12.561572
440000,4.999093,0.189142,6.208165,52.301220,-162.539597,-11.156992
444000,4.781221,0.193930,5.808333,54.774502,-165.608307,-9.324930
448000,4.721366,0.191536,5.365406,56.728699,-168.157928,-6.546304
452000,4.522647,0.179565,4.924873,58.316486,-171.638840,-4.057755
456000,4.402937,0.275333,4.697424,58.713432,-176.493805,-1.813480
460000,4.599261,0.344765,4.675876,59.140915,-178.997620,1.270490
464000,5.102044,0.418985,4.659117,59.965340,-178.539597,3.972780
468000,5.456386,0.620098,4.343082,59.171448,-175.837311,6.003314
472000,5.832275,0.833182,4.091691,58.194347,-172.753342,7.209421
476000,6.114791,0.821211,4.096479,57.858471,-170.020523,7.545299
480000,6.189012,0.897826,3.584120,57.400455,-169.593033,7.163620
484000,5.839458,0.945710,3.284845,57.278316,-170.096848,7.881176
488000,5.544971,0.919373,2.923320,57.003510,-176.173187,8.339191
492000,5.583278,0.940921,2.753332,56.576027,-181.806778,9.346826
496000,5.738902,0.943315,2.710236,55.843204,-183.944183,11.194154
500000,5.748478,0.802058,2.987964,55.507324,-183.364029,13.667436
504000,5.628768,0.967257,2.659958,55.705799,-184.218994,17.468964
508000,5.681441,1.036689,2.415750,54.240150,-185.699905,21.636902
512000,6.165070,1.024718,2.418144,52.743969,-186.157928,25.392628
516000,6.603208,1.156399,2.528277,50.682899,-185.745712,28.568201
520000,7.038953,1.139640,2.446874,50.118011,-186.035782,30.888811
524000,7.613562,1.276109,2.382231,48.179081,-185.287689,32.720871
528000,8.123527,1.300052,2.370260,47.125645,-183.150284,33.667439
532000,8.664616,1.335965,2.336741,47.247784,-180.249527,34.049118
536000,8.990228,1.371878,2.176329,46.514961,-178.661743,33.102551
540000,9.306262,1.517924,2.319981,45.110378,-178.829681,31.499496
544000,9.710882,1.563414,2.549825,43.995876,-178.799149,29.835377
548000,10.074800,1.379060,2.829947,45.889004,-176.615936,27.789574
552000,10.079589,1.357512,2.820370,47.721066,-177.272430,24.980413
556000,9.914390,1.369483,2.679112,49.782135,-179.348770,22.904078
560000,9.801862,1.278504,2.619257,51.736332,-182.829681,20.980413
564000,9.866506,1.393425,2.396596,53.125645,-183.730438,20.033850
568000,9.878476,1.434127,2.250550,52.698166,-185.333496,18.690338
572000,9.897630,1.273715,2.389413,51.812668,-185.852585,18.155987
576000,9.804255,1.237802,2.650381,51.598930,-184.264801,18.140718
580000,9.670180,1.244985,2.624045,50.606564,-180.814407,19.010948
584000,9.727641,1.264138,2.693477,48.484425,-175.409836,20.262857
588000,10.086772,1.256956,2.396596,45.919540,-166.539597,21.468964
592000,10.048465,1.426944,1.865083,41.843204,-157.394562,22.812475
596000,10.151415,1.505953,1.331176,36.927174,-150.982346,24.262857
600000,10.484209,1.522712,1.307234,30.972975,-145.593033,24.781940
604000,10.958261,1.436521,1.386243,26.911905,-141.180817,24.507132
608000,11.247959,1.450886,1.197101,25.339388,-138.173187,23.026215
612000,11.314998,1.577779,0.723049,24.026409,-138.264801,20.904078
616000,11.815386,1.640028,0.600945,21.889006,-140.661743,17.499498
620000,12.296620,1.690306,0.907402,18.942440,-141.593033,13.178886
624000,12.638990,1.470040,1.517924,17.827936,-139.486160,8.140718
628000,12.442666,1.403002,1.640028,17.904272,-135.043427,3.606368
632000,11.741165,1.338359,1.438915,17.385187,-131.043427,0.583467
636000,11.085154,1.204283,1.508347,16.347019,-131.302963,-1.599739
640000,10.682928,1.082179,1.900996,15.736333,-130.753342,-2.851648
644000,9.955091,0.780510,1.939303,16.484425,-128.646469,-1.416533
648000,9.380483,0.648829,1.884237,15.782134,-125.989975,2.003314
652000,9.174581,0.495600,1.563414,13.797401,-121.211349,6.217055
656000,9.196129,0.366313,1.101333,12.087478,-115.730438,10.736138
660000,9.449914,0.409408,0.708684,9.095112,-108.722801,14.965146
664000,9.674969,0.392649,0.438139,5.583661,-99.287689,18.583467
668000,9.643845,0.620098,0.167594,-0.462140,-88.600662,23.072018
672000,9.945514,0.440533,0.330400,-6.126263,-78.127380,26.965147
676000,10.175357,0.385466,0.481235,-11.561378,-66.921272,29.743773
680000,10.022128,0.349553,0.758962,-15.286569,-58.035782,32.812473
684000,10.228029,0.320823,1.017536,-18.248400,-55.180820,34.262856
688000,10.579977,0.258574,1.649605,-18.538475,-52.509064,34.858276
692000,10.850522,0.086191,1.903390,-16.233131,-48.753338,34.629269
696000,10.941502,0.124498,1.874660,-13.042293,-46.967079,33.484230
700000,10.991780,0.167594,1.771709,-9.759851,-47.470898,31.881176
704000,11.104307,0.160412,1.877054,-6.935423,-49.822041,29.194155
708000,11.326968,0.112527,2.181118,-3.423972,-51.501431,26.827742
712000,11.511322,0.095768,2.379837,0.179081,-51.180820,24.598734
716000,11.681310,0.141258,2.063802,5.354653,-50.524330,22.949881
720000,11.755530,0.311246,1.841141,9.186714,-49.654102,20.614002
724000,11.848905,0.373495,1.407791,11.553126,-47.867844,18.155987
728000,11.439496,0.392649,0.782904,13.354653,-49.196087,16.232323
732000,11.200075,0.541090,0.620098,13.568394,-48.783875,16.155987
736000,10.977415,0.337582,0.952892,15.476790,-49.699905,17.774307
740000,12.330139,0.639252,1.142034,16.362288,-49.730438,16.415529
744000,12.275072,0.665588,-0.088585,13.873737,-28.524332,17.438429
748000,11.487380,0.890643,-0.849942,12.667630,-25.455629,18.018581
752000,11.441890,0.826000,-0.684742,9.965341,-28.768606,17.194155
756000,11.645397,0.828394,-0.562637,7.766867,-26.967079,17.041483
760000,11.820174,0.888249,-0.931344,5.125646,-19.302958,17.988047
764000,11.844116,0.981623,-0.821211,2.560760,-15.928912,17.606369
768000,11.899182,0.952892,-0.679953,-0.217866,-12.264790,17.331558
772000,11.942278,0.854730,-0.778116,-2.920156,-7.791507,17.285757
776000,12.033257,0.928950,-0.586579,-5.042294,-2.325858,17.270491
780000,11.925519,0.933739,-0.603339,-7.546110,1.429867,17.102551
784000,11.927913,0.873884,-0.320823,-10.065194,4.635974,17.102551
788000,12.028469,0.845153,-0.004788,-11.164431,9.552004,17.301025
792000,12.085930,0.746991,0.155623,-11.286569,12.926050,16.995682
796000,12.105083,0.651223,0.356736,-10.721683,14.666508,16.629269
800000,12.332533,0.811634,0.715866,-10.233133,15.750477,15.789573
804000,12.847286,0.718261,1.307234,-8.294202,17.765745,13.820107
808000,13.000515,0.667982,1.620875,-5.240767,19.872616,10.720871
812000,12.794614,0.596156,1.458069,-1.271301,20.208492,7.224689
816000,12.437878,0.557849,0.938527,2.453890,19.185593,4.400261
820000,11.937490,0.509965,0.577003,5.766867,15.032920,2.064383
824000,11.607090,0.378284,0.289698,9.263050,10.071088,0.720871
828000,11.568783,0.342371,0.318429,12.072210,6.712310,0.079650
832000,11.355699,0.375890,-0.323217,14.530226,4.864982,0.140719
836000,11.202470,0.435745,-0.727837,14.148546,3.842081,0.354459
840000,11.037270,0.548272,-0.936133,10.759233,4.147425,0.843009
844000,11.003751,0.579397,-1.055843,7.140913,6.742845,2.247589
848000,10.869676,0.548272,-1.055843,3.492058,10.590172,3.850643
852000,10.668563,0.526724,-1.211466,-0.156797,14.468035,5.988047
856000,10.618284,0.524330,-1.197101,-3.759850,16.208492,7.331559
860000,10.694899,0.598550,-1.173159,-6.599545,17.002386,8.369726
864000,10.685322,0.675165,-1.058237,-9.042294,17.170324,8.812474
868000,10.809821,0.703895,-0.938527,-10.324736,15.994753,8.614001
872000,10.749966,0.826000,-0.684742,-10.752217,14.254294,8.094917
876000,10.778696,0.818817,-0.464475,-10.981225,12.590172,7.423162
880000,10.821792,0.888249,-0.323217,-10.920156,11.567271,6.568200
884000,10.814610,0.936133,-0.260968,-10.981225,10.987119,5.423162
888000,10.714052,0.921768,-0.227449,-11.256034,9.582539,4.873543
892000,10.635044,0.897826,-0.222661,-11.240767,7.170325,3.484231
896000,10.436325,0.723049,-0.191536,-9.820919,3.277195,2.339192
900000,10.201694,0.735020,-0.347159,-7.744583,-1.944179,2.110184
904000,10.266336,0.737414,-0.629675,-6.798018,-6.127385,1.896444
908000,10.374076,0.670376,-0.550666,-6.828553,-8.310591,1.392627
912000,10.340557,0.588974,-0.521936,-7.301835,-8.921278,0.965146
916000,10.263943,0.581791,-0.517148,-8.172065,-10.280057,0.614001
920000,10.132261,0.471658,-0.447716,-8.752217,-11.760973,0.476597
924000,9.928755,0.359130,-0.375890,-8.950690,-12.264790,1.072016
928000,9.880871,0.414197,-0.136469,-8.645347,-11.898377,2.171253
932000,9.938332,0.390255,0.045490,-9.088095,-9.486164,3.835375
936000,10.084377,0.462081,0.289698,-9.179698,-7.562499,4.675070
940000,10.292673,0.474052,0.181959,-8.324736,-6.524331,5.072017
944000,10.426748,0.536301,0.143652,-7.225499,-6.661736,4.690337
948000,10.599131,0.502782,0.203507,-6.126263,-8.188454,3.133085
952000,10.673351,0.490811,0.232238,-4.721683,-8.264790,1.255223
956000,10.606314,0.435745,0.107739,-4.202599,-8.280057,0.018581
960000,10.460267,0.418985,0.086191,-3.836186,-9.073950,-1.385999
964000,10.362105,0.402226,0.102951,-3.088094,-9.745706,-1.584472
968000,10.182540,0.359130,0.086191,-3.271301,-10.066317,-1.523403
972000,10.113108,0.359130,0.179565,-3.576644,-9.012881,-1.172258
976000,10.093954,0.265756,0.098162,-3.469774,-7.898377,-0.546304
980000,10.048465,0.306458,0.083797,-3.530843,-7.593033,-0.363098
984000,10.194510,0.260968,-0.095768,-2.904888,-6.447995,0.232322
988000,10.017340,0.328006,0.160412,-8.721683,-7.531965,0.217055
992000,10.077195,0.347159,0.067038,-4.019392,-6.310591,1.163620
996000,10.342952,0.316035,0.165200,-5.881988,-3.150285,2.064383
1000000,10.460267,0.356736,0.146046,-6.340003,-0.127385,2.400261
1004000,10.460267,0.409408,-0.146046,-6.843820,-1.974713,2.186520
1008000,10.740389,0.433351,-0.191536,-6.752217,-0.356392,2.186520
1012000,10.488997,0.478840,-0.294487,-8.385805,-1.150285,1.881177
1016000,10.429143,0.517148,-0.198719,-10.248401,-3.318224,1.911711
1020000,10.647015,0.531513,0.000000,-11.088095,-2.539598,1.789574
1024000,10.754754,0.483629,0.227449,-12.126264,-0.356392,1.820108
1028000,10.785878,0.488417,0.490811,-12.752217,3.231394,2.125452
1032000,10.577583,0.392649,0.711078,-12.507943,7.338264,2.827742
1036000,10.654198,0.335188,0.533907,-11.927790,9.185592,3.301024
1040000,10.587160,0.366313,0.550666,-11.759851,9.261928,3.255223
1044000,10.613496,0.248997,0.620098,-11.072827,7.750478,2.705604
1048000,10.644621,0.349553,0.538695,-10.431606,6.040555,2.064383
1052000,10.776301,0.318429,0.962469,-9.423973,6.376432,1.362093
1056000,10.809821,0.241814,1.340753,-7.607179,6.330631,0.812474
1060000,10.737994,0.191536,1.501164,-5.820919,6.040555,-0.073022
1064000,10.591949,0.059855,1.417367,-3.668247,7.521471,-0.500503
1068000,10.455479,0.050278,1.355118,-2.675881,9.429867,-0.363098
1072000,10.321404,0.059855,1.407791,-0.920156,10.086355,-0.943251
1076000,10.249578,0.074220,1.240196,1.201982,10.193226,-0.989052
1080000,10.172963,0.038307,0.821211,2.743967,9.460402,-1.492869
1084000,9.852140,0.119710,0.385466,3.049310,8.025287,-1.905083
1088000,9.627085,0.057461,0.227449,2.759233,6.406967,-1.523403
1092000,9.452309,-0.031125,0.201113,2.026409,6.330631,-0.790579
1096000,9.370906,-0.110133,0.107739,1.354653,7.307730,0.812474
1100000,9.437943,-0.086191,0.067038,0.331753,8.910783,2.446062
1104000,9.433155,-0.007183,-0.045490,-1.011759,10.666508,3.713238
1108000,9.481039,-0.028730,-0.026336,-2.019392,11.796279,4.965147
1112000,9.466674,0.040701,-0.138864,-3.927789,12.208493,5.881177
1116000,9.528923,0.167594,0.040701,-5.820919,11.338264,6.522398
1120000,9.816227,0.208296,0.177171,-6.904889,11.032920,7.117818
1124000,9.974244,0.189142,0.454898,-6.492675,12.254294,7.010948
1128000,9.828198,0.189142,0.337582,-5.744583,12.223760,7.468963
1132000,9.801862,0.189142,0.244209,-5.714049,10.040554,7.957512
1136000,9.933543,0.304064,0.239420,-6.034659,7.124524,7.957512
1140000,10.129868,0.373495,0.289698,-6.798018,5.704677,7.972780
1144000,10.376471,0.339977,0.411803,-7.439240,5.185593,7.484231
1148000,10.443508,0.387861,0.730232,-7.714049,5.979486,7.163620
1152000,10.431537,0.385466,0.718261,-8.217866,6.635974,6.736139
1156000,10.577583,0.421380,0.835576,-7.958323,7.399333,6.201787
1160000,10.560823,0.533907,0.835576,-7.225499,7.307730,5.530032
1164000,10.467450,0.531513,0.861913,-6.614813,5.658875,4.766673
1168000,10.436325,0.469264,0.847547,-5.317102,4.422234,4.049116
1172000,10.572795,0.488417,0.873884,-5.042294,4.987119,3.774307
1176000,10.726024,0.529119,0.984017,-4.660614,6.544371,3.117818
1180000,10.778696,0.548272,0.936133,-3.729316,7.353531,2.110184
1184000,10.838552,0.553061,0.926556,-2.981224,6.498569,0.949879
1188000,10.790668,0.433351,0.991199,-1.164430,6.116890,-0.286762
1192000,10.687716,0.390255,0.919373,0.667630,6.437501,-1.141724
1196000,10.486604,0.366313,0.852336,1.430989,6.773379,-1.248594
1200000,10.570400,0.311246,0.907402,2.133279,7.521471,-1.767678
1204000,10.402806,0.277727,0.861913,3.354653,8.223760,-2.225693
1208000,10.156203,0.165200,0.562637,4.514959,7.887883,-2.256228
1212000,9.823410,0.112527,0.215478,4.728699,6.284829,-2.179892
1216000,9.665392,0.090980,0.215478,4.469157,3.597806,-1.401266
1220000,9.600749,-0.009577,0.028730,4.224883,1.811547,-0.515770
1224000,9.694122,0.045490,0.004788,2.972974,1.506203,0.919345
1228000,9.792285,0.052672,-0.059855,1.583661,1.796279,2.140719
1232000,9.871294,0.100556,-0.035913,-0.110996,2.513837,2.446062
1236000,9.933543,0.124498,-0.067038,-1.790385,4.055821,3.362093
1240000,9.828198,0.146046,-0.189142,-3.454507,4.697043,3.728505
1244000,9.684546,0.114922,-0.148441,-4.523210,4.300097,4.812475
1248000,9.701305,0.131681,-0.107739,-6.172065,3.643608,5.759039
1252000,9.756371,0.083797,0.134075,-7.103362,3.994753,6.552933
1256000,9.871294,0.052672,0.268151,-8.233133,5.796279,8.064383
1260000,9.849746,0.098162,0.280122,-9.225499,7.948951,9.438428
1264000,9.902418,0.189142,0.445322,-10.950690,9.460402,10.766672
1268000,10.168175,0.189142,0.720655,-11.820919,11.292462,11.835375
1272000,10.563218,0.251391,0.960075,-12.278935,13.277195,12.018581
1276000,11.061212,0.294487,1.149217,-11.500309,14.849714,10.934611
1280000,11.295844,0.402226,1.213860,-9.744583,16.422234,8.919344
1284000,11.410766,0.421380,1.283292,-7.057561,15.246661,6.140719
1288000,11.405977,0.375890,1.192312,-4.798018,11.536737,2.705604
1292000,11.173739,0.325611,1.292869,-2.355270,7.322997,-0.149358
1296000,11.070788,0.213084,1.276109,0.285951,4.116890,-2.698976
1300000,10.778696,0.153229,1.383849,3.263050,2.101623,-3.889816
1304000,10.587160,0.100556,1.170765,4.652363,1.368798,-4.805846
1308000,10.340557,0.074220,1.185130,4.728699,0.239028,-4.912716
1312000,10.249578,0.026336,1.199495,4.728699,-0.356392,-4.744777
1316000,10.244789,-0.019154,1.127669,5.018775,2.391699,-3.859281
1320000,10.058042,-0.079009,0.986411,4.942440,5.750478,-2.882182
1324000,9.818622,-0.023942,0.500388,4.011142,6.742845,-1.279129
1328000,9.701305,0.000000,0.316035,1.950073,5.399333,0.033849
1332000,9.770737,0.016759,0.237026,0.011142,5.445135,1.560566
1336000,9.844957,-0.026336,0.325611,-1.561377,6.590173,2.843009
1340000,9.962274,0.055067,0.452504,-2.675881,7.658875,3.896444
1344000,10.098742,0.136469,0.371101,-3.973591,7.521471,4.140719
1348000,10.268731,0.177171,0.347159,-5.301835,7.170325,3.682703
1352000,10.192117,0.205901,0.553061,-6.110995,6.315363,3.224688
1356000,10.172963,0.272939,0.560243,-6.416339,4.712310,2.430795
1360000,10.026917,0.284910,0.699107,-6.446874,3.277195,1.988047
1364000,9.940725,0.193930,0.888249,-5.943057,2.345898,2.033848
1368000,9.902418,0.246603,0.924162,-5.027026,1.735211,2.400261
1372000,10.002975,0.181959,0.943315,-4.324736,1.445134,2.354459
1376000,10.079589,0.196325,0.914585,-2.798018,1.674142,1.636902
1380000,10.070012,0.220267,0.735020,-1.423972,0.269562,0.690337
1384000,10.007763,0.263362,0.524330,-0.721682,-2.753339,-0.317297
1388000,9.880871,0.201113,0.603339,-0.248400,-5.135018,-1.141724
1392000,9.907207,0.098162,0.737414,0.285951,-6.218987,-1.202793
1396000,9.921572,0.107739,0.794875,0.789768,-5.776239,-1.141724
1400000,9.916783,0.146046,0.802058,0.850837,-4.738071,-0.943251
1404000,10.081984,0.148441,0.869095,1.537859,-3.241888,-0.485235
1408000,10.220847,0.237026,0.708684,1.919539,-1.302957,-0.363098
1412000,10.192117,0.222661,0.763750,1.583661,0.773379,-0.561571
1416000,10.216059,0.191536,0.864307,1.553127,2.788646,-0.256228
1420000,10.172963,0.253785,0.785298,1.766867,3.582539,0.003314
1424000,10.055647,0.201113,0.653617,1.507325,3.674142,0.201787
1428000,9.983821,0.184354,0.493206,1.293585,3.124524,0.690337
1432000,9.919178,0.179565,0.344765,0.805035,2.071089,1.194154
1436000,9.926360,0.124498,0.454898,-0.294202,1.460402,1.972780
1440000,10.024523,0.098162,0.646434,-0.782751,0.300096,2.094917
1444000,10.204087,0.198719,0.656011,-1.561377,1.552005,2.400261
1448000,10.156203,0.129287,0.610521,-2.584278,2.880249,2.537665
1452000,9.979033,0.093374,0.653617,-3.668247,3.200860,3.194154
1456000,9.888053,0.138864,0.648829,-4.431606,2.193226,3.636902
1460000,10.122684,0.134075,0.943315,-5.317102,2.071089,4.140719
1464000,10.441113,0.124498,1.012747,-5.027026,2.880249,3.835375
1468000,10.591949,0.150835,0.926556,-4.446874,3.246661,2.690337
1472000,10.565612,0.081403,0.878672,-3.088094,2.132157,1.026215
1476000,10.417171,0.014365,0.730232,-0.553744,0.239028,-0.729510
1480000,10.101137,-0.002394,0.624887,0.056943,-2.524331,-1.355464
1484000,10.031705,-0.100556,0.648829,0.163814,-5.180820,-1.508136
1488000,9.995792,-0.098162,0.895431,-0.217866,-5.241889,-1.294396
1492000,10.022128,-0.023942,0.902614,-0.309469,-2.768606,-0.653174
1496000,9.923966,-0.081403,0.864307,-0.691148,0.101623,-0.042487
1500000,9.749189,-0.059855,0.797269,-1.988858,0.819180,1.102551
1504000,9.746795,-0.105345,0.703895,-2.584278,1.674142,2.278123
1508000,9.859323,-0.076614,0.718261,-3.317102,3.063455,3.789574
1512000,10.256760,0.028730,0.679953,-3.317102,4.574905,3.911711
1516000,10.381259,0.114922,0.682347,-2.889621,3.903150,3.178887
1520000,10.515334,0.193930,0.644040,-2.828552,1.506203,1.652169
1524000,10.486604,0.146046,0.742203,-1.958324,-1.028148,0.430795
1528000,10.477027,0.112527,0.986411,-0.584278,-2.035782,-0.271495
1532000,10.402806,0.069432,1.094150,0.362287,-1.654102,-1.248594
1536000,10.307038,0.189142,1.165976,0.957707,-1.547232,-1.263861
1540000,10.146626,0.081403,1.280898,1.156180,-0.906011,-0.989052
1544000,10.127473,0.057461,1.142034,2.240149,-0.417461,-1.172258
1548000,10.050858,0.210690,0.785298,2.911905,-1.089217,-0.927984
1552000,9.962274,0.248997,0.560243,2.835569,-2.310591,-1.233327
1556000,9.955091,0.222661,0.311246,2.881371,-3.684637,-1.233327
1560000,9.931149,0.260968,0.277727,2.514959,-5.760972,-1.263861
1564000,10.096349,0.201113,0.421380,1.889004,-6.417461,-1.508136
1568000,10.012551,0.189142,0.316035,1.400455,-5.867843,-1.233327
1572000,9.866506,0.169988,0.349553,0.331753,-5.531965,-0.943251
1576000,9.643845,0.165200,0.193930,-1.485041,-4.707537,0.018581
1580000,9.550470,0.079009,0.102951,-3.271301,-3.913644,1.591100
1584000,9.370906,0.083797,-0.016759,-5.515575,-3.898377,3.575833
1588000,9.442732,0.131681,0.323217,-7.454507,-3.180820,5.911711
1592000,9.768343,0.122104,0.421380,-8.904889,-0.860209,8.079650
1596000,10.062830,0.131681,0.694318,-10.446874,2.605440,9.499497
1600000,10.230424,0.232238,0.811634,-11.240767,5.872615,10.507131
1604000,10.412383,0.248997,0.962469,-12.248401,7.399333,10.873543
1608000,10.508151,0.184354,1.019930,-12.599545,8.254294,11.041482
1612000,10.596737,0.205901,1.086968,-12.462140,8.330630,11.087283
1616000,10.639832,0.232238,1.331176,-11.652981,8.330630,10.675070
1620000,10.864887,0.148441,1.422156,-10.309469,8.681775,9.575833
1624000,10.984597,0.134075,1.467646,-8.645347,8.727577,8.339191
1628000,11.051635,0.179565,1.477222,-6.889622,8.177958,6.446063
1632000,11.003751,0.134075,1.537078,-4.401072,7.475669,4.446063
1636000,10.998962,0.074220,1.443704,-2.324736,6.010020,2.675070
1640000,10.647015,0.011971,1.261744,-1.210232,4.605440,1.453696
1644000,10.532093,-0.117316,1.070208,0.362287,3.781013,1.148352
1648000,10.414778,-0.102951,0.833182,1.476791,3.353531,0.827742
1652000,10.551247,-0.011971,0.787692,1.507325,3.200860,0.751406
1656000,10.644621,0.000000,0.816423,1.507325,3.261928,0.568200
1660000,10.682928,0.019154,0.730232,1.843203,3.658875,-0.607373
1664000,10.517728,0.076614,0.725443,1.950073,4.483303,-1.126457
1668000,10.460267,-0.031125,0.809240,2.133279,4.849715,-1.492869
1672000,10.208876,-0.059855,0.648829,2.576027,3.948951,-1.584472
1676000,10.093954,-0.009577,0.282516,2.514959,2.086356,-1.523403
1680000,10.103531,-0.009577,-0.090980,1.293585,-1.211354,-2.225693
1684000,10.115502,0.045490,0.081403,0.591295,-2.234255,-2.332564
1688000,10.012551,0.009577,0.047884,0.988241,-3.257156,-2.256228
1692000,9.866506,0.038307,0.126893,0.606562,-3.440362,-1.905083
1696000,9.787497,-0.040701,0.265756,0.056943,-2.753339,-0.790579
1700000,9.710882,0.031125,0.330400,-0.889621,-1.760972,0.033849
1704000,9.792285,0.007183,0.416591,-1.607178,0.513837,1.575833
1708000,9.713276,0.059855,0.438139,-2.645346,3.628341,3.178887
1712000,9.828198,0.045490,0.497994,-4.049927,5.536737,4.461329
1716000,9.945514,0.071826,0.483629,-5.194965,6.635974,5.591101
1720000,10.067618,0.083797,0.529119,-5.943057,7.368799,6.873543
1724000,10.110714,0.098162,0.596156,-6.431606,7.093989,7.392627
1728000,10.383653,0.174777,0.670376,-6.660614,7.674142,7.591100
1732000,10.788273,0.210690,0.890643,-5.973591,8.101623,6.843009
1736000,11.032481,0.208296,0.948104,-5.362904,6.452768,4.812475
1740000,11.030087,0.203507,1.072602,-4.431606,3.933684,2.461329
1744000,11.099519,0.040701,1.280898,-1.897255,2.620707,0.430795
1748000,10.855310,0.009577,1.244985,0.453890,1.613073,-0.973785
1752000,10.850522,0.014365,1.194707,2.545493,-0.844942,-2.485235
1756000,10.752359,0.002394,1.022324,3.369921,-2.753339,-3.156991
1760000,10.721235,0.014365,0.847547,3.644730,-3.287690,-3.538671
1764000,10.687716,-0.011971,0.974440,3.980608,-2.386927,-4.149358
1768000,10.558430,-0.069432,0.928950,4.682898,-0.738072,-4.134090
1772000,10.467450,0.079009,0.648829,4.102745,0.788646,-4.088289
1776000,10.237606,0.148441,0.507571,2.224883,2.666508,-3.508136
1780000,10.251971,0.189142,0.567426,0.637096,2.422234,-3.080655
1784000,10.465055,0.160412,0.565032,-0.996492,4.971852,-2.973785
1788000,10.297462,0.165200,0.378284,-2.553744,7.017653,-3.187526
1792000,10.216059,0.172383,0.220267,-4.110995,7.506203,-3.279129
1796000,10.153810,0.119710,0.397437,-4.462141,6.376432,-3.218060
1800000,10.058042,-0.004788,0.351948,-3.210232,4.147425,-3.095922
1804000,9.923966,0.141258,0.344765,-2.736950,1.948951,-3.019587
1808000,9.933543,0.098162,0.289698,-2.782751,0.620707,-2.469968
1812000,10.031705,0.057461,0.469264,-3.210232,-0.127385,-2.439434
1816000,10.005369,0.014365,0.584185,-3.469774,-0.585400,-2.393632
1820000,9.938332,-0.014365,0.682347,-3.591912,-0.371659,-2.958518
1824000,9.821015,-0.043096,0.586579,-3.347636,-0.493797,-2.607373
1828000,9.689334,-0.031125,0.636858,-3.546110,-1.333492,-2.500503
1832000,9.674969,0.007183,0.656011,-3.454507,-2.371660,-2.210426
1836000,9.888053,-0.071826,0.703895,-2.965957,-3.913644,-2.546304
1840000,10.072407,-0.055067,0.756568,-2.599545,-4.096850,-3.156991
1844000,10.022128,-0.038307,0.761356,-2.614812,-4.722805,-4.073022
1848000,9.964667,-0.069432,0.749385,-2.278934,-6.295323,-4.805846
1852000,9.842564,-0.009577,0.615310,-2.843820,-6.814407,-4.912716
1856000,9.591172,-0.076614,0.651223,-3.530843,-7.547232,-4.821113
1860000,9.416395,-0.158017,0.636858,-3.988858,-8.677003,-4.088289
1864000,9.493010,-0.241814,0.651223,-4.660614,-8.936545,-2.821113
1868000,9.574412,-0.234632,0.653617,-5.072827,-7.684637,-1.431800
1872000,9.619903,-0.160412,0.550666,-5.988858,-6.722805,-0.011953
1876000,9.828198,-0.155623,0.703895,-7.622446,-6.524331,0.934612
1880000,10.146626,-0.160412,1.017536,-7.988858,-4.722805,1.301024
1884000,10.220847,-0.181959,1.412579,-7.897255,-1.516698,1.499497
1888000,10.352529,-0.191536,1.596933,-6.782751,1.445134,1.575833
1892000,10.333375,-0.098162,1.640028,-5.881988,3.155058,1.407894
1896000,10.515334,-0.062249,1.568202,-5.103362,4.483303,1.102551
1900000,10.472239,-0.086191,1.788469,-4.645347,5.750478,-0.088289
1904000,10.465055,-0.095768,1.640028,-2.828552,6.544371,-0.973785
1908000,10.254366,-0.055067,1.625663,-0.141530,7.368799,-1.477602
1912000,10.189722,-0.050278,1.462857,2.667631,6.010020,-1.966151
1916000,10.019734,-0.016759,1.022324,5.049310,2.605440,-2.042487
1920000,9.933543,0.059855,0.883460,6.392821,-0.051049,-2.363098
1924000,9.971850,0.079009,0.591368,7.263050,-2.157919,-2.073022
1928000,9.931149,0.124498,0.469264,6.713432,-2.982346,-1.660808
1932000,9.840169,0.141258,0.268151,6.118012,-2.112118,-0.973785
1936000,9.763555,0.081403,0.050278,4.743967,-0.631201,0.537665
1940000,9.684546,0.237026,-0.153229,3.537859,-0.112117,1.591100
1944000,9.751583,0.258574,-0.220267,1.354653,-0.005247,2.705604
1948000,9.720459,0.239420,-0.241814,-0.920156,0.300096,3.697971
1952000,9.648633,0.222661,-0.263362,-2.660614,0.177959,4.583467
1956000,9.725247,0.287304,-0.153229,-4.843820,0.010020,5.301024
1960000,9.773131,0.246603,-0.124498,-6.904889,0.315363,6.110185
1964000,9.923966,0.287304,-0.059855,-9.042294,0.361165,6.308658
1968000,10.165780,0.253785,0.244209,-10.660614,0.590173,6.018581
1972000,10.342952,0.239420,0.586579,-11.530843,1.689409,5.774307
1976000,10.273520,0.134075,0.677559,-11.805653,2.193226,5.041482
1980000,10.292673,0.143652,0.849942,-11.714049,1.735211,4.644536
1984000,10.259154,0.050278,1.094150,-11.714049,2.452768,4.522398
1988000,10.311827,0.021548,1.379060,-11.194965,3.781013,4.705605
1992000,10.220847,-0.002394,1.577779,-10.767485,5.552005,4.934612
1996000,10.187328,-0.043096,1.752556,-9.836186,6.651241,5.362093
