time_us,ax,ay,az,gx,gy,gz
0,0.330400,-1.472434,8.451532,-2.767484,-0.096850,-0.408900
4000,0.263362,-1.422156,8.532935,-2.614812,-0.264789,-0.302029
8000,0.344765,-1.386243,8.410830,-2.904888,-0.554866,-0.454701
12000,0.385466,-1.374272,8.453926,-3.286568,-1.058682,-0.653174
16000,0.373495,-1.403002,8.525752,-3.469774,0.162692,-0.760045
20000,0.459687,-1.453280,8.566454,-3.958324,1.719944,-0.592106
24000,0.378284,-1.374272,8.578424,-4.202599,2.239028,-1.019587
28000,0.505177,-1.422156,8.547300,-4.645347,2.849715,-1.492869
32000,0.330400,-1.498770,8.628703,-3.897255,2.498570,-1.492869
36000,0.191536,-1.477222,8.590396,-3.088094,0.116890,-1.645541
40000,0.196325,-1.419762,8.626308,-2.584278,-1.822041,-1.569205
44000,0.217872,-1.520318,8.822633,-2.217866,-1.791507,-1.569205
48000,0.325611,-1.371878,8.386889,-3.362904,-0.463263,-1.202793
52000,-0.033519,-1.565808,8.834604,-1.943056,-5.119751,-1.569205
56000,0.373495,-1.637634,8.762778,-0.431606,1.414600,-0.149358
60000,0.220267,-1.386243,8.576031,-0.859087,0.498570,-0.149358
64000,0.308852,-1.410185,8.497022,-2.385804,1.338264,0.064383
68000,0.110133,-1.575385,8.913613,-1.317102,-0.112117,0.430795
72000,0.325611,-1.486799,8.805874,-0.263667,1.597806,0.568200
76000,0.131681,-1.438915,8.542512,-0.950690,1.445134,0.797207
80000,0.311246,-1.520318,8.662222,-1.301835,0.162692,0.873543
84000,0.356736,-1.482011,8.671799,-1.240766,1.613073,1.133085
88000,0.308852,-1.474828,8.695741,-1.301835,1.948951,0.995681
92000,0.430956,-1.462857,8.635885,-0.981224,1.613073,1.072016
96000,0.438139,-1.417367,8.559271,-0.752217,1.170325,1.056749
100000,0.414197,-1.472434,8.614338,-0.370538,1.246661,0.598734
104000,0.440533,-1.371878,8.717288,-0.233133,2.010020,0.446062
108000,0.387861,-1.369483,8.597578,-0.126262,2.116890,-0.011953
112000,0.409408,-1.386243,8.614338,-0.004125,1.842081,-0.408900
116000,0.426168,-1.335965,8.616732,0.331753,1.933684,-0.637907
120000,0.383072,-1.393425,8.595184,0.728699,1.948951,-0.729510
124000,0.375890,-1.383849,8.497022,0.789768,1.979486,-1.111190
128000,0.363919,-1.424550,8.530540,0.530226,1.521470,-1.324930
132000,0.296881,-1.407791,8.456321,0.392821,1.322997,-1.737144
136000,0.213084,-1.470040,8.561666,0.118012,1.277195,-1.721877
140000,0.225055,-1.453280,8.635885,0.118012,1.139791,-1.553938
144000,0.225055,-1.503559,8.528147,0.087478,1.261928,-1.523403
148000,0.038307,-1.539472,8.508993,-0.446873,1.506203,-1.615006
152000,0.064643,-1.537078,8.350976,-0.752217,1.170325,-1.477602
156000,0.064643,-1.544260,8.578424,-1.118629,1.414600,-1.126457
160000,0.090980,-1.546654,8.683769,-1.469774,1.704676,-0.973785
164000,0.011971,-1.575385,8.757990,-1.423972,1.582539,-0.653174
168000,-0.011971,-1.563414,8.839393,-0.965957,1.826814,-0.469968
172000,-0.045490,-1.640028,8.836999,-0.721682,1.567272,-0.256228
176000,-0.045490,-1.654393,8.896853,-0.019392,1.246661,0.537665
180000,0.019154,-1.644817,8.939949,0.637096,1.078722,0.644536
184000,0.071826,-1.592144,8.870518,1.171447,0.941318,0.629268
188000,0.205901,-1.527501,8.743625,1.690531,0.712310,0.644536
192000,0.213084,-1.544260,8.619126,2.240149,0.590173,0.568200
196000,0.239420,-1.556231,8.571242,2.118012,0.376432,0.476597
200000,0.263362,-1.496376,8.482656,1.965340,0.376432,0.415528
204000,0.225055,-1.486799,8.410830,1.690531,0.208493,0.461329
208000,0.208296,-1.410185,8.343793,1.278317,0.315363,0.354459
212000,0.268151,-1.472434,8.315063,0.499691,0.361165,0.232322
216000,0.191536,-1.448492,8.343793,0.194348,0.376432,0.446062
220000,0.241814,-1.374272,8.271967,-0.340003,-0.081583,0.675070
224000,0.277727,-1.414973,8.379706,-0.721682,-0.081583,0.384994
228000,0.263362,-1.350330,8.334216,-1.164430,-0.112117,0.262856
232000,0.311246,-1.395820,8.339005,-1.683514,-0.509064,0.064383
236000,0.270545,-1.407791,8.281544,-2.156797,-0.554866,-0.149358
240000,0.277727,-1.489193,8.408437,-2.110996,-0.218988,-0.195159
244000,0.325611,-1.424550,8.638280,-1.973591,-0.478530,-0.195159
248000,0.208296,-1.436521,8.554482,-2.065194,-0.722805,-0.469968
252000,0.129287,-1.422156,8.552089,-2.202598,-1.012881,-0.240961
256000,0.146046,-1.417367,8.504205,-2.065194,-1.211354,-0.378365
260000,0.150835,-1.412579,8.564059,-1.958324,-1.531965,0.064383
264000,0.124498,-1.429338,8.746018,-1.729316,-1.791507,0.262856
268000,0.208296,-1.379060,8.829816,-1.393438,-1.409827,0.507131
272000,0.270545,-1.393425,8.839393,-1.286568,-0.799140,0.400261
276000,0.366313,-1.419762,8.863335,-1.271301,-0.585400,0.278123
280000,0.368707,-1.424550,8.865729,-1.256034,-0.112117,0.354459
284000,0.277727,-1.436521,8.765172,-1.591912,0.010020,-0.088289
288000,0.246603,-1.465251,8.927979,-1.271301,0.147424,0.049116
292000,0.299275,-1.520318,9.045294,-0.935423,0.559638,0.140719
296000,0.375890,-1.496376,8.983045,-0.477408,0.727577,0.461329
300000,0.318429,-1.563414,8.906430,-0.156797,1.231394,0.430795
304000,0.397437,-1.479617,8.906430,0.224882,1.139791,0.308658
308000,0.361524,-1.584962,8.949526,0.682898,1.231394,0.308658
312000,0.442927,-1.539472,9.014170,1.095111,1.475669,-0.118823
316000,0.454898,-1.549049,8.908825,1.736333,1.704676,0.171253
320000,0.332794,-1.525106,8.875306,1.965340,1.460402,-0.424167
324000,0.328006,-1.534683,8.774749,2.194348,1.048188,-0.531037
328000,0.256180,-1.517924,8.755595,2.056943,0.895516,-0.546304
332000,0.177171,-1.587356,8.647857,2.179081,0.651241,-0.561571
336000,0.150835,-1.544260,8.520964,2.026409,0.422234,-0.363098
340000,0.193930,-1.527501,8.604761,1.827936,0.010020,-0.195159
344000,0.270545,-1.429338,8.516175,1.919539,-0.005247,-0.103556
348000,0.296881,-1.537078,8.662222,2.011142,0.635974,-0.088289
352000,0.294487,-1.470040,8.592790,1.858470,1.063455,-0.057755
356000,0.248997,-1.448492,8.525752,1.629462,1.887883,-0.073022
360000,0.213084,-1.446098,8.415619,1.339386,1.918417,0.003314
364000,0.160412,-1.431733,8.355764,0.911905,2.071089,-0.149358
368000,0.136469,-1.441309,8.190564,0.072211,1.887883,-0.088289
372000,0.119710,-1.472434,8.202535,-0.462140,1.246661,0.201787
376000,0.179565,-1.474828,8.377312,-0.813286,0.437501,0.094917
380000,0.320823,-1.426944,8.432379,-0.492675,-0.066316,0.110184
384000,0.268151,-1.395820,8.485051,-0.553744,-0.967079,-0.149358
388000,0.313640,-1.508347,8.631097,-0.202598,-0.783873,-0.347831
392000,0.306458,-1.501164,8.655039,-0.126262,-0.066316,-0.286762
396000,0.205901,-1.522712,8.540117,-0.492675,-0.203721,-0.286762
400000,0.174777,-1.546654,8.667010,-0.324736,0.055821,-0.057755
404000,0.189142,-1.553837,8.676587,-0.263667,0.406966,0.537665
408000,0.160412,-1.505953,8.552089,-0.080461,0.971852,0.614001
412000,0.222661,-1.522712,8.609550,0.240150,1.048188,0.827742
416000,0.289698,-1.508347,8.571242,0.056943,0.651241,0.568200
420000,0.189142,-1.465251,8.609550,0.179081,0.422234,0.552933
424000,0.308852,-1.477222,8.540117,0.179081,0.437501,0.552933
428000,0.208296,-1.549049,8.506598,-0.126262,-0.356392,0.247589
432000,0.270545,-1.491588,8.657434,0.148546,-0.753339,0.568200
436000,0.138864,-1.493982,8.559271,0.316485,-0.997614,0.446062
440000,0.256180,-1.503559,8.568848,0.255417,-1.104484,0.705604
444000,0.169988,-1.482011,8.647857,0.316485,-1.073950,0.675070
448000,0.256180,-1.441309,8.609550,0.331753,-0.814408,0.888810
452000,0.270545,-1.455675,8.643068,0.438623,-0.402194,1.026215
456000,0.330400,-1.417367,8.657434,0.667630,-0.249522,1.194154
460000,0.349553,-1.405396,8.664616,1.064577,-0.386927,0.919345
464000,0.380678,-1.417367,8.765172,1.644730,-0.753339,0.858276
468000,0.366313,-1.446098,8.906430,2.285951,0.025287,0.827742
472000,0.361524,-1.417367,8.829816,2.835569,0.162692,0.507131
476000,0.351948,-1.345541,8.712500,2.820302,0.254295,0.583467
480000,0.306458,-1.347936,8.585608,2.743967,0.147424,0.369726
484000,0.308852,-1.367089,8.590396,1.980608,0.147424,0.430795
488000,0.289698,-1.359907,8.470686,1.675264,0.468035,0.339192
492000,0.289698,-1.371878,8.408437,1.247783,0.590173,0.415528
496000,0.289698,-1.441309,8.348581,0.438623,0.452768,0.384994
500000,0.399832,-1.412579,8.398860,-0.202598,0.422234,0.354459
504000,0.373495,-1.395820,8.432379,-1.072828,0.605440,0.232322
508000,0.359130,-1.403002,8.552089,-1.698782,0.376432,0.201787
512000,0.418985,-1.436521,8.504205,-2.126262,0.391699,-0.057755
516000,0.337582,-1.465251,8.604761,-2.385804,-0.173186,-0.134090
520000,0.423774,-1.470040,8.671799,-2.507942,-0.463263,0.033849
524000,0.407014,-1.465251,8.753201,-2.080461,-0.677003,-0.271495
528000,0.320823,-1.493982,8.772355,-1.820919,-0.570133,-0.332564
532000,0.330400,-1.477222,8.937555,-1.347636,-0.768606,-0.103556
536000,0.287304,-1.491588,8.892065,-0.569010,-0.844942,-0.149358
540000,0.378284,-1.484405,8.755595,-0.126262,-0.844942,-0.515770
544000,0.318429,-1.388637,8.746018,0.224882,-0.722805,-0.546304
548000,0.342371,-1.371878,8.724471,0.408088,-0.600667,-0.424167
552000,0.380678,-1.410185,8.700529,0.652363,-0.631201,-0.531037
556000,0.320823,-1.470040,8.889671,1.064577,-0.356392,-0.576838
560000,0.328006,-1.410185,8.858546,1.659997,0.437501,-0.439434
564000,0.361524,-1.436521,8.817844,2.011142,1.063455,-0.592106
568000,0.337582,-1.374272,8.705317,2.133279,1.338264,-0.546304
572000,0.222661,-1.422156,8.530540,2.194348,1.582539,-0.439434
576000,0.284910,-1.448492,8.415619,1.904272,1.781012,-0.592106
580000,0.256180,-1.426944,8.511387,1.263050,1.597806,-0.760045
584000,0.304064,-1.453280,8.439561,1.064577,1.368798,-0.805846
588000,0.301669,-1.355118,8.504205,1.018775,1.399333,-1.019587
592000,0.371101,-1.458069,8.518570,0.713432,1.384066,-0.927984
596000,0.323217,-1.510741,8.556877,0.301218,1.796279,-0.927984
600000,0.239420,-1.462857,8.607155,0.240150,1.903150,-1.034854
604000,0.244209,-1.424550,8.580819,0.209615,2.025287,-1.248594
608000,0.193930,-1.383849,8.576031,0.087478,1.704676,-1.263861
612000,0.220267,-1.417367,8.489840,0.118012,1.719944,-0.897449
616000,0.181959,-1.462857,8.523358,-0.248400,1.063455,-0.958518
620000,0.193930,-1.446098,8.504205,-0.385804,0.010020,-1.050121
624000,0.138864,-1.505953,8.537724,-0.660614,-0.539598,-0.622640
628000,0.124498,-1.498770,8.532935,-0.813286,-0.432728,-0.897449
632000,0.246603,-1.525106,8.439561,-1.042293,-0.478530,-0.668442
636000,0.169988,-1.513135,8.468291,-1.088094,-0.570133,-0.744777
640000,0.203507,-1.541866,8.688558,-1.179698,-1.043415,-0.485235
644000,0.100556,-1.565808,8.791509,-0.843820,-0.493797,-0.408900
648000,0.174777,-1.594538,8.803479,-0.355270,0.010020,0.125452
652000,0.146046,-1.575385,8.784326,0.118012,-0.020514,0.079650
656000,0.203507,-1.510741,8.791509,0.423356,0.177959,0.507131
660000,0.208296,-1.517924,8.681376,0.469157,0.651241,0.430795
664000,0.311246,-1.448492,8.623915,0.438623,1.155058,0.552933
668000,0.323217,-1.410185,8.580819,0.743966,1.414600,0.644536
672000,0.318429,-1.515530,8.602366,1.430989,0.651241,0.354459
676000,0.284910,-1.355118,8.396465,1.980608,0.055821,0.201787
680000,0.241814,-1.345541,8.473080,0.820302,-1.058682,-0.134090
684000,0.399832,-1.403002,8.722076,0.957707,-0.402194,-0.225693
688000,0.397437,-1.410185,8.674192,1.247783,0.483302,-0.424167
692000,0.361524,-1.376666,8.535329,1.324119,0.452768,-0.485235
696000,0.339977,-1.369483,8.564059,0.820302,0.742844,-0.500503
700000,0.308852,-1.400608,8.501810,0.423356,1.155058,-0.424167
704000,0.246603,-1.414973,8.422802,-0.370538,1.368798,-0.561571
708000,0.201113,-1.388637,8.386889,-1.103362,1.658875,-0.347831
712000,0.253785,-1.450886,8.540117,-1.362904,2.086356,-0.363098
716000,0.325611,-1.527501,8.674192,-1.652980,3.338264,-0.027220
720000,0.263362,-1.472434,8.729259,-1.866720,3.781013,0.033849
724000,0.304064,-1.503559,8.626308,-1.546110,3.506203,-0.011953
728000,0.248997,-1.501164,8.717288,-1.622446,3.429867,-0.088289
732000,0.143652,-1.541866,8.638280,-1.683514,2.941318,-0.057755
736000,0.146046,-1.534683,8.631097,-1.576644,2.422234,0.201787
740000,0.117316,-1.563414,8.513782,-1.591912,1.445134,0.201787
744000,0.093374,-1.604115,8.690952,-1.286568,0.376432,0.049116
748000,0.263362,-1.563414,8.923190,-0.614812,-0.478530,0.247589
752000,0.270545,-1.575385,8.968679,0.667630,0.132157,0.125452
756000,0.284910,-1.549049,8.978256,1.140913,0.681776,0.064383
760000,0.220267,-1.513135,8.882488,1.568394,0.941318,0.369726
764000,0.167594,-1.513135,8.712500,1.522592,1.811547,0.430795
768000,0.129287,-1.580173,8.640674,1.308852,2.361165,0.690337
772000,0.181959,-1.484405,8.494628,1.247783,2.391699,1.056749
776000,0.179565,-1.491588,8.518570,1.217249,1.918417,1.453696
780000,0.330400,-1.470040,8.626308,1.430989,2.116890,1.484230
784000,0.414197,-1.422156,8.573636,1.644730,2.406966,1.331558
788000,0.457293,-1.319205,8.573636,1.369921,2.529104,0.812474
792000,0.430956,-1.381454,8.544906,1.400455,2.651241,0.491864
796000,0.354342,-1.319205,8.468291,1.186714,2.987119,0.232322
800000,0.299275,-1.302446,8.439561,0.881371,3.063455,0.201787
804000,0.234632,-1.326388,8.377312,0.331753,2.300096,0.339192
808000,0.191536,-1.326388,8.480263,0.148546,2.208493,0.201787
812000,0.296881,-1.331176,8.487445,-0.065194,1.765745,0.323925
816000,0.330400,-1.345541,8.595184,-0.034660,1.185592,-0.027220
820000,0.347159,-1.386243,8.532935,0.087478,0.529104,-0.515770
824000,0.375890,-1.326388,8.432379,-0.095728,-0.188453,-0.897449
828000,0.306458,-1.383849,8.437167,-0.431606,-1.440362,-1.416533
832000,0.263362,-1.410185,8.580819,-0.691148,-2.203721,-1.691342
836000,0.234632,-1.381454,8.513782,-0.721682,-2.844942,-1.767678
840000,0.208296,-1.470040,8.513782,-0.920156,-3.165553,-2.103556
844000,0.205901,-1.525106,8.406042,-1.286568,-3.867843,-1.813480
848000,0.174777,-1.501164,8.626308,-1.591912,-4.218988,-1.981419
852000,0.239420,-1.577779,8.829816,-1.500308,-2.951812,-1.798213
856000,0.201113,-1.553837,8.839393,-1.194965,-2.096850,-1.538671
860000,0.150835,-1.525106,8.832211,-1.133896,-1.822041,-1.355464
864000,0.160412,-1.637634,8.796297,-1.011759,-1.333492,-1.202793
868000,0.002394,-1.572991,9.066842,-0.798018,-1.394560,-0.836380
872000,0.114922,-1.709460,9.418790,0.637096,0.177959,-0.363098
876000,0.181959,-1.666364,9.440337,2.820302,2.086356,0.232322
880000,0.021548,-1.606509,9.504981,4.102745,2.819180,0.522398
884000,0.129287,-1.620875,9.205706,5.217249,3.384066,0.507131
888000,0.126893,-1.527501,9.069236,5.904272,3.689409,0.705604
892000,0.138864,-1.520318,8.951921,6.469157,4.101623,0.507131
896000,0.201113,-1.498770,8.894460,6.576027,4.055821,0.430795
900000,0.258574,-1.443704,8.726865,6.484425,4.025287,0.278123
904000,0.337582,-1.405396,8.525752,6.347020,3.842081,0.018581
908000,0.292093,-1.367089,8.571242,5.782134,4.101623,-0.088289
912000,0.227449,-1.419762,8.461109,4.911905,4.147425,-0.347831
916000,0.239420,-1.302446,8.259995,4.118012,4.513837,-0.363098
920000,0.186748,-1.328782,8.171411,2.972974,4.651241,-0.164625
924000,0.090980,-1.340753,8.128315,2.133279,4.315363,-0.103556
928000,0.033519,-1.340753,7.920019,1.110379,3.735211,0.003314
932000,0.098162,-1.367089,7.905654,-0.294202,2.910783,0.308658
936000,0.110133,-1.268927,7.965509,-1.744583,1.887883,0.278123
940000,0.158017,-1.201889,8.025364,-2.798018,0.758111,0.232322
944000,0.328006,-1.276109,8.164227,-3.622446,0.406966,-0.011953
948000,0.318429,-1.233014,8.437167,-4.309469,-0.554866,-0.317297
952000,0.256180,-1.362301,8.353370,-2.828552,-1.730438,-0.821113
956000,0.162806,-1.276109,8.429984,-3.988858,-3.196087,-0.989052
960000,0.205901,-1.388637,8.784326,-4.446874,-3.577766,-1.645541
964000,0.191536,-1.493982,8.803479,-3.943056,-2.585400,-1.233327
968000,0.069432,-1.561020,8.810662,-2.828552,-4.218988,-1.294396
972000,0.079009,-1.594538,8.865729,-2.004125,-5.776239,-1.340197
976000,0.153229,-1.544260,9.057265,-1.042293,-6.539598,-1.355464
980000,0.146046,-1.580173,8.995016,-0.065194,-6.921278,-1.630274
984000,0.153229,-1.580173,9.054871,0.499691,-6.249522,-1.340197
988000,0.081403,-1.549049,9.076419,1.003508,-5.883110,-1.508136
992000,0.069432,-1.496376,8.968679,1.339386,-4.661736,-0.882182
996000,0.095768,-1.505953,8.872911,1.293585,-2.677003,-0.469968
1000000,0.050278,-1.498770,8.698134,0.927172,-1.211354,0.018581
1004000,0.205901,-1.486799,8.750807,0.637096,0.574905,0.415528
1008000,0.198719,-1.477222,8.566454,0.499691,2.513837,0.980413
1012000,0.191536,-1.422156,8.485051,0.133279,3.536737,0.949879
1016000,0.265756,-1.395820,8.607155,-0.049927,3.628341,0.858276
1020000,0.344765,-1.362301,8.501810,-0.538476,3.903150,0.705604
1024000,0.248997,-1.393425,8.662222,-0.553744,4.345898,0.522398
1028000,0.196325,-1.395820,8.738836,-0.538476,4.559639,0.843009
1032000,0.160412,-1.355118,8.556877,-0.507942,4.681776,0.675070
1036000,0.141258,-1.383849,8.585608,-0.340003,4.284829,0.812474
1040000,0.134075,-1.350330,8.508993,-0.187331,3.948951,0.919345
1044000,0.198719,-1.352724,8.537724,-0.233133,3.368799,0.491864
1048000,0.110133,-1.359907,8.525752,-0.278934,2.712310,0.644536
1052000,0.220267,-1.388637,8.576031,-0.507942,2.376432,0.675070
1056000,0.184354,-1.328782,8.475474,-0.340003,2.086356,0.583467
1060000,0.174777,-1.355118,8.508993,-0.721682,1.490936,0.323925
1064000,0.256180,-1.395820,8.341399,0.362287,0.956585,0.171253
1068000,0.107739,-1.314417,8.262390,-0.309469,0.391699,0.262856
1072000,0.136469,-1.362301,8.331821,-1.561377,0.574905,0.186520
1076000,0.270545,-1.379060,8.384495,-1.897255,1.765745,0.461329
1080000,0.217872,-1.374272,8.303091,-1.943056,1.552005,0.293391
1084000,0.193930,-1.340753,8.303091,-2.446873,1.170325,0.247589
1088000,0.198719,-1.371878,8.212111,-3.011759,0.819180,0.461329
1092000,0.248997,-1.359907,8.341399,-2.904888,0.315363,0.278123
1096000,0.251391,-1.316811,8.377312,-3.194965,-0.356392,0.018581
1100000,0.220267,-1.388637,8.410830,-2.859087,-0.646469,-0.332564
1104000,0.222661,-1.386243,8.482656,-3.011759,-2.325858,-0.744777
1108000,0.351948,-1.395820,8.418014,-3.042293,-2.524331,-0.760045
1112000,0.191536,-1.426944,8.573636,-2.446873,-2.096850,-0.653174
1116000,0.155623,-1.532289,8.671799,-2.294202,-2.722805,-0.668442
1120000,0.179565,-1.527501,8.810662,-1.576644,-3.241888,-0.485235
1124000,0.272939,-1.484405,8.935161,-0.874354,-2.264789,-0.622640
1128000,0.265756,-1.527501,9.162610,-0.324736,-0.157919,-0.210426
1132000,0.253785,-1.441309,8.947132,0.423356,-1.058682,-0.790579
1136000,0.304064,-1.522712,8.904037,1.766867,0.819180,-0.973785
1140000,0.117316,-1.584962,8.774749,1.171447,1.903150,-0.531037
1144000,0.011971,-1.544260,8.592790,0.988241,1.628341,-0.179892
1148000,0.038307,-1.541866,8.511387,0.606562,1.216127,0.201787
1152000,0.110133,-1.491588,8.492233,0.392821,0.987119,0.446062
1156000,0.081403,-1.479617,8.456321,0.072211,0.574905,0.476597
1160000,0.213084,-1.503559,8.461109,-0.492675,-0.142652,0.675070
1164000,0.198719,-1.515530,8.599973,-0.935423,-0.096850,0.537665
1168000,0.265756,-1.460463,8.542512,-1.256034,0.406966,0.415528
1172000,0.193930,-1.496376,8.633492,-1.637713,0.651241,0.323925
1176000,0.294487,-1.493982,8.597578,-1.790385,0.574905,0.415528
1180000,0.277727,-1.426944,8.655039,-1.637713,0.803913,0.400261
1184000,0.196325,-1.541866,8.678981,-1.637713,1.185592,0.308658
1188000,0.167594,-1.582567,8.664616,-1.439240,1.246661,0.278123
1192000,0.191536,-1.601721,8.671799,-1.042293,0.910783,0.171253
1196000,0.165200,-1.546654,8.779537,-0.294202,0.361165,0.155986
1200000,0.179565,-1.561020,8.820239,0.072211,-0.188453,0.094917
1204000,0.129287,-1.539472,8.827422,0.423356,-0.371659,0.079650
1208000,0.160412,-1.534683,8.803479,0.637096,-0.875476,-0.240961
1212000,0.191536,-1.565808,8.750807,0.728699,-0.997614,-0.011953
1216000,0.138864,-1.513135,8.592790,0.469157,-1.150285,-0.103556
1220000,0.160412,-1.565808,8.784326,0.194348,-1.364026,0.186520
1224000,0.189142,-1.546654,8.798691,0.713432,-1.241889,0.308658
1228000,0.160412,-1.575385,8.813056,1.201982,-0.707537,0.278123
1232000,0.155623,-1.484405,8.676587,1.186714,-0.814408,0.186520
1236000,0.248997,-1.470040,8.664616,1.049310,-0.906011,0.278123
1240000,0.203507,-1.458069,8.631097,0.713432,-1.501431,0.064383
1244000,0.193930,-1.479617,8.633492,1.186714,0.177959,0.232322
1248000,0.143652,-1.467646,8.719683,1.247783,-0.738072,0.079650
1252000,0.181959,-1.407791,8.645462,1.095111,-1.486163,0.217055
1256000,0.222661,-1.379060,8.683769,1.125646,-1.394560,0.064383
1260000,0.351948,-1.465251,8.631097,1.064577,-1.058682,0.217055
1264000,0.342371,-1.453280,8.611943,1.110379,-1.196087,-0.011953
1268000,0.260968,-1.410185,8.489840,0.759233,-0.814408,-0.240961
1272000,0.287304,-1.398214,8.492233,0.438623,-0.615934,-0.424167
1276000,0.222661,-1.403002,8.451532,-0.065194,-0.738072,-0.531037
1280000,0.112527,-1.453280,8.508993,-0.431606,-1.226621,-0.378365
1284000,0.086191,-1.424550,8.528147,-0.798018,-1.593034,-0.027220
1288000,0.102951,-1.431733,8.686164,-1.149163,-1.730438,0.003314
1292000,0.272939,-1.532289,8.738836,-0.950690,-1.196087,0.598734
1296000,0.272939,-1.493982,8.954314,-0.904888,-0.402194,0.888810
1300000,0.299275,-1.443704,8.911219,-0.614812,0.620707,0.690337
1304000,0.330400,-1.407791,8.741230,-0.507942,1.139791,0.919345
1308000,0.366313,-1.441309,8.719683,-0.569010,1.521470,0.598734
1312000,0.363919,-1.498770,8.851364,-0.340003,1.490936,0.446062
1316000,0.380678,-1.539472,8.911219,0.591295,1.994753,0.155986
1320000,0.371101,-1.484405,9.064447,1.354653,1.903150,-0.103556
1324000,0.330400,-1.479617,8.911219,1.934806,1.750478,-0.439434
1328000,0.304064,-1.489193,8.736442,2.408089,1.353531,-0.515770
1332000,0.246603,-1.517924,8.729259,2.682898,1.445134,-0.531037
1336000,0.227449,-1.496376,8.695741,2.591295,0.971852,-0.637907
1340000,0.155623,-1.477222,8.631097,2.179081,0.926050,-0.332564
1344000,0.148441,-1.474828,8.592790,2.255417,1.155058,-0.225693
1348000,0.280122,-1.434127,8.621520,2.072211,0.849715,-0.240961
1352000,0.280122,-1.431733,8.542512,2.011142,0.895516,-0.103556
1356000,0.268151,-1.393425,8.494628,1.827936,1.307730,0.064383
1360000,0.256180,-1.407791,8.487445,1.201982,1.750478,-0.393632
1364000,0.248997,-1.429338,8.362947,0.789768,1.750478,-0.225693
1368000,0.134075,-1.391031,8.401254,0.087478,1.567272,-0.149358
1372000,0.052672,-1.386243,8.355764,-0.172064,1.231394,0.018581
1376000,0.083797,-1.410185,8.214506,-0.660614,0.147424,0.171253
1380000,0.158017,-1.379060,8.346188,-0.981224,-0.906011,0.323925
1384000,0.107739,-1.374272,8.288726,-1.103362,-1.898377,-0.027220
1388000,0.284910,-1.395820,8.508993,-1.286568,-2.722805,-0.149358
1392000,0.277727,-1.359907,8.528147,-1.408705,-3.394560,-0.653174
1396000,0.282516,-1.345541,8.540117,-1.347636,-4.203721,-1.050121
1400000,0.241814,-1.355118,8.652645,-1.423972,-4.203721,-1.019587
1404000,0.215478,-1.362301,8.532935,-1.530843,-4.066316,-1.111190
1408000,0.124498,-1.422156,8.439561,-2.080461,-3.989980,-0.958518
1412000,0.107739,-1.405396,8.425196,-2.156797,-3.669369,-0.698976
1416000,0.119710,-1.419762,8.434772,-2.431606,-3.760972,-0.317297
1420000,0.146046,-1.450886,8.506598,-2.706415,-3.608301,0.003314
1424000,0.265756,-1.381454,8.573636,-2.660614,-3.531965,-0.134090
1428000,0.301669,-1.391031,8.647857,-2.538476,-3.959446,-0.088289
1432000,0.282516,-1.309628,8.635885,-2.248400,-3.608301,-0.256228
1436000,0.478840,-1.407791,8.932767,-1.378171,-2.447995,-0.103556
1440000,0.488417,-1.371878,9.126697,-0.446873,-0.615934,-0.240961
1444000,0.476446,-1.319205,9.069236,0.499691,0.559638,-0.363098
1448000,0.426168,-1.326388,9.011775,1.003508,1.399333,-0.607373
1452000,0.433351,-1.359907,8.801085,1.492058,2.406966,-0.897449
1456000,0.325611,-1.338359,8.655039,1.797401,2.880249,-0.973785
1460000,0.299275,-1.374272,8.609550,2.301218,2.361165,-0.760045
1464000,0.244209,-1.383849,8.628703,2.453890,1.185592,-0.958518
1468000,0.244209,-1.477222,8.470686,2.499691,0.391699,-1.294396
1472000,0.304064,-1.484405,8.492233,2.331753,-0.509064,-1.599739
1476000,0.368707,-1.470040,8.588001,2.331753,-0.493797,-1.691342
1480000,0.351948,-1.448492,8.406042,2.102745,-0.371659,-2.073022
1484000,0.268151,-1.446098,8.489840,1.675264,-0.371659,-2.347831
1488000,0.217872,-1.513135,8.585608,1.110379,-0.310591,-2.240961
1492000,0.047884,-1.505953,8.571242,0.652363,0.086356,-2.332564
1496000,-0.074220,-1.544260,8.597578,0.056943,0.147424,-1.828747
1500000,-0.074220,-1.541866,8.626308,-0.141530,0.269562,-1.477602
1504000,-0.016759,-1.604115,8.719683,-0.401072,0.330631,-1.004319
1508000,-0.021548,-1.551443,8.755595,-0.904888,0.758111,-0.134090
1512000,0.004788,-1.584962,8.695741,-1.027026,1.185592,0.110184
1516000,0.129287,-1.570596,8.647857,-1.164430,1.582539,0.461329
1520000,0.146046,-1.592144,8.614338,-1.714049,1.842081,0.537665
1524000,0.162806,-1.534683,8.702923,-1.973591,1.857348,0.797207
1528000,0.134075,-1.496376,8.686164,-2.217866,1.613073,0.751406
1532000,0.184354,-1.561020,8.671799,-2.187331,1.490936,0.736139
1536000,0.088585,-1.515530,8.719683,-2.080461,0.971852,0.888810
1540000,0.167594,-1.493982,8.868123,-1.637713,0.681776,1.026215
1544000,0.181959,-1.563414,9.026140,-0.721682,0.452768,0.843009
1548000,0.320823,-1.525106,9.059659,0.133279,0.651241,0.934612
1552000,0.284910,-1.443704,8.901642,1.079844,0.620707,0.797207
1556000,0.248997,-1.453280,8.844181,1.476791,0.895516,0.568200
1560000,0.284910,-1.508347,8.781932,1.904272,1.490936,0.568200
1564000,0.210690,-1.484405,8.657434,2.179081,1.628341,0.690337
1568000,0.189142,-1.403002,8.611943,2.163814,1.597806,0.904078
1572000,0.306458,-1.379060,8.504205,2.255417,1.399333,0.644536
1576000,0.260968,-1.400608,8.480263,1.858470,1.582539,0.705604
1580000,0.174777,-1.424550,8.422802,1.751600,1.093989,0.217055
1584000,0.263362,-1.400608,8.415619,1.385188,0.635974,0.354459
1588000,0.289698,-1.410185,8.504205,1.079844,0.529104,0.110184
1592000,0.292093,-1.429338,8.556877,1.079844,0.727577,0.079650
1596000,0.246603,-1.448492,8.540117,0.957707,0.452768,-0.088289
1600000,0.258574,-1.403002,8.540117,1.018775,0.086356,-0.118823
1604000,0.292093,-1.343147,8.604761,0.835569,-0.066316,-0.134090
1608000,0.294487,-1.419762,8.571242,0.621829,-0.051049,0.110184
1612000,0.246603,-1.450886,8.580819,0.179081,0.406966,0.003314
1616000,0.265756,-1.395820,8.576031,-0.004125,0.697043,0.079650
1620000,0.306458,-1.410185,8.559271,-0.370538,0.605440,0.033849
1624000,0.328006,-1.443704,8.501810,-0.645346,0.712310,-0.210426
1628000,0.395043,-1.460463,8.540117,-0.889621,0.849715,-0.240961
1632000,0.395043,-1.393425,8.504205,-1.118629,0.452768,-0.179892
1636000,0.378284,-1.414973,8.664616,-1.469774,0.483302,-0.363098
1640000,0.433351,-1.400608,8.645462,-1.714049,0.498570,-0.714243
1644000,0.385466,-1.395820,8.726865,-1.088094,0.223760,-0.989052
1648000,0.342371,-1.407791,8.731653,-0.752217,-0.967079,-1.141724
1652000,0.430956,-1.343147,8.896853,-0.492675,0.498570,-1.080655
1656000,0.428562,-1.460463,8.925584,0.514959,0.971852,-1.508136
1660000,0.339977,-1.462857,8.927979,0.835569,0.697043,-1.767678
1664000,0.280122,-1.510741,8.841787,1.476791,1.139791,-1.981419
1668000,0.174777,-1.477222,8.848969,2.056943,0.605440,-2.027220
1672000,0.045490,-1.517924,8.772355,2.392821,0.468035,-1.981419
1676000,0.059855,-1.498770,8.681376,2.530226,0.330631,-1.798213
1680000,0.052672,-1.501164,8.619126,2.621829,0.025287,-1.630274
1684000,0.064643,-1.515530,8.592790,2.392821,0.071089,-1.523403
1688000,0.095768,-1.529895,8.468291,1.843203,-0.112117,-1.553938
1692000,0.028730,-1.522712,8.410830,0.881371,-0.066316,-1.645541
1696000,-0.023942,-1.520318,8.413225,0.285951,-0.142652,-0.958518
1700000,-0.011971,-1.584962,8.499416,-0.049927,-0.264789,-0.851648
1704000,0.019154,-1.563414,8.556877,-0.187331,-0.295324,-0.622640
1708000,0.021548,-1.477222,8.573636,-0.309469,-0.356392,-0.073022
1712000,0.043096,-1.508347,8.686164,-0.446873,-0.173186,0.018581
1716000,0.059855,-1.484405,8.686164,-0.172064,-0.509064,0.598734
1720000,0.131681,-1.503559,8.580819,-0.248400,-0.280056,0.537665
1724000,0.265756,-1.391031,8.678981,-0.263667,-0.066316,0.736139
1728000,0.263362,-1.407791,8.561666,-0.294202,-0.035782,0.904078
1732000,0.320823,-1.419762,8.602366,-0.110996,0.147424,0.843009
1736000,0.450110,-1.374272,8.652645,0.163814,0.910783,0.827742
1740000,0.481235,-1.357512,8.544906,0.469157,1.261928,0.537665
1744000,0.459687,-1.264138,8.516175,-0.049927,1.445134,0.171253
1748000,0.373495,-1.223437,8.458714,-0.126262,1.719944,0.125452
1752000,0.409408,-1.256956,8.233660,0.362287,0.361165,-0.531037
1756000,0.332794,-1.244985,8.219295,-0.095728,-0.203721,-0.744777
1760000,0.222661,-1.247379,8.288726,-0.340003,-0.417461,-1.126457
1764000,0.248997,-1.268927,8.310274,-0.843820,-1.180820,-1.492869
1768000,0.086191,-1.302446,8.303091,-0.935423,-2.035782,-1.324930
1772000,0.174777,-1.429338,8.554482,-0.431606,-2.692270,-1.416533
1776000,0.210690,-1.379060,8.614338,0.270684,-2.463263,-1.416533
1780000,0.143652,-1.398214,8.645462,0.667630,-2.127385,-1.599739
1784000,0.150835,-1.383849,8.592790,0.820302,-2.066316,-1.721877
1788000,0.136469,-1.448492,8.501810,0.728699,-2.066316,-1.782945
1792000,0.102951,-1.505953,8.434772,0.743966,-2.539598,-1.767678
1796000,0.098162,-1.508347,8.508993,0.362287,-2.539598,-1.767678
1800000,0.100556,-1.491588,8.585608,-0.019392,-2.890743,-1.599739
1804000,0.114922,-1.584962,8.592790,-0.507942,-3.165553,-1.355464
1808000,0.131681,-1.601721,8.734048,-1.011759,-3.211354,-1.202793
1812000,0.196325,-1.618480,8.762778,-0.904888,-2.722805,-0.958518
1816000,0.169988,-1.604115,8.836999,-0.904888,-2.081583,-0.729510
1820000,0.232238,-1.592144,8.870518,-0.813286,-1.135018,-0.469968
1824000,0.198719,-1.534683,8.822633,-0.660614,-1.058682,-0.195159
1828000,0.040701,-1.556231,8.856153,-0.477408,-0.768606,-0.042487
1832000,0.155623,-1.575385,8.698134,-0.492675,-0.096850,0.308658
1836000,0.189142,-1.438915,8.741230,-0.706415,0.498570,0.247589
1840000,0.215478,-1.498770,8.688558,-0.706415,0.712310,0.598734
1844000,0.263362,-1.482011,8.647857,-1.027026,1.384066,0.736139
1848000,0.272939,-1.379060,8.640674,-1.164430,1.460402,0.659803
1852000,0.189142,-1.316811,8.578424,-1.179698,1.093989,0.675070
1856000,0.167594,-1.359907,8.588001,-1.149163,0.559638,0.079650
1860000,0.225055,-1.383849,8.614338,-1.103362,-0.386927,0.247589
1864000,0.167594,-1.419762,8.638280,-0.920156,-1.470896,-0.042487
1868000,0.225055,-1.388637,8.753201,-0.721682,-2.631201,0.003314
1872000,0.335188,-1.486799,8.856153,0.072211,-2.982346,-0.134090
1876000,0.277727,-1.436521,8.911219,0.606562,-2.982346,-0.546304
1880000,0.308852,-1.443704,8.832211,1.415722,-2.539598,-0.485235
1884000,0.316035,-1.446098,8.892065,1.721066,-1.852576,-0.607373
1888000,0.280122,-1.491588,8.805874,2.026409,-1.440362,-0.240961
1892000,0.222661,-1.450886,8.810662,2.179081,-1.226621,-0.561571
1896000,0.232238,-1.436521,8.695741,2.347020,-1.119751,-0.363098
1900000,0.201113,-1.424550,8.738836,2.392821,-0.875476,-0.057755
1904000,0.253785,-1.434127,8.669404,2.453890,-0.692270,-0.164625
1908000,0.296881,-1.434127,8.547300,2.255417,-0.906011,-0.118823
1912000,0.287304,-1.422156,8.451532,1.721066,-0.646469,0.049116
1916000,0.306458,-1.395820,8.439561,1.446256,-0.493797,-0.103556
1920000,0.280122,-1.422156,8.372523,0.835569,-0.402194,-0.271495
1924000,0.308852,-1.359907,8.485051,0.530226,-0.203721,-0.576838
1928000,0.356736,-1.462857,8.652645,0.209615,-0.142652,-0.668442
1932000,0.241814,-1.395820,8.559271,-0.065194,0.315363,-0.607373
1936000,0.220267,-1.493982,8.559271,-0.462140,0.605440,-0.821113
1940000,0.205901,-1.460463,8.451532,-0.660614,0.971852,-0.546304
1944000,0.143652,-1.462857,8.508993,-0.752217,0.834447,-0.347831
1948000,0.167594,-1.455675,8.578424,-0.706415,0.941318,-0.317297
1952000,0.112527,-1.472434,8.540117,-0.614812,0.315363,-0.057755
1956000,0.205901,-1.458069,8.403648,-0.782751,-0.234255,-0.271495
1960000,0.263362,-1.371878,8.422802,-0.813286,-0.524331,-0.210426
1964000,0.368707,-1.395820,8.532935,-0.523209,-0.112117,-0.531037
1968000,0.284910,-1.407791,8.631097,-0.416339,-0.096850,-0.744777
1972000,0.318429,-1.446098,8.623915,-0.156797,-0.325858,-1.095922
1976000,0.265756,-1.395820,8.765172,0.148546,-0.249522,-1.111190
1980000,0.191536,-1.462857,8.724471,0.545493,0.116890,-0.927984
1984000,0.124498,-1.455675,8.762778,1.140913,0.116890,-0.531037
1988000,0.134075,-1.493982,8.736442,1.400455,-0.249522,-0.454701
1992000,0.100556,-1.484405,8.700529,1.553127,-0.432728,-0.240961
1996000,0.189142,-1.417367,8.645462,1.690531,-0.295324,-0.118823
