time_us,ax,ay,az,gx,gy,gz
0,0.445322,-1.036689,8.645462,-10.859087,-2.493797,-0.622640
4000,0.464475,-1.089362,8.556877,-11.561378,-0.967079,-0.683709
8000,0.383072,-1.194707,8.676587,-12.217866,0.498570,-0.698976
12000,0.332794,-1.125275,8.547300,-11.561378,0.864982,-0.729510
16000,0.359130,-1.120486,8.544906,-11.683515,0.391699,-0.668442
20000,0.306458,-1.132457,8.916007,-11.897255,0.544371,-1.172258
24000,0.205901,-1.321599,9.337387,-10.889622,-0.356392,-1.187526
28000,0.387861,-1.237802,9.751583,-8.660614,0.880249,-0.882182
32000,0.414197,-1.283292,9.957485,-7.637713,2.544371,-1.248594
36000,0.138864,-1.003170,9.232041,-10.874354,4.468035,-2.378365
40000,1.446098,-2.085350,9.770737,-11.652981,2.452768,-2.698976
44000,0.404620,-1.544260,9.495404,-3.591912,7.582539,-1.111190
48000,0.325611,-1.362301,9.227253,-1.500308,4.055821,-2.363098
52000,0.380678,-1.338359,9.138668,-0.004125,7.048188,-2.286762
56000,0.337582,-1.448492,8.959103,0.377554,5.903150,-2.439434
60000,0.169988,-1.367089,8.619126,0.698165,4.391699,-2.698976
64000,0.184354,-1.379060,8.619126,1.186714,0.559638,-3.095922
68000,0.277727,-1.458069,8.678981,1.629462,-0.005247,-3.492869
72000,0.402226,-1.364695,8.585608,0.774501,1.353531,-3.309663
76000,0.098162,-1.357512,8.611943,-0.049927,1.292463,-2.943251
80000,0.023942,-1.431733,8.590396,0.026409,-0.218988,-2.698976
84000,0.081403,-1.350330,8.537724,-1.057560,0.162692,-2.271495
88000,0.100556,-1.364695,8.470686,-1.714049,2.437501,-1.416533
92000,-0.033519,-1.295263,8.413225,-2.492675,4.193226,-0.683709
96000,0.007183,-1.362301,8.477868,-3.454507,3.735211,-0.332564
100000,0.093374,-1.276109,8.516175,-4.126263,4.605440,0.308658
104000,0.110133,-1.343147,8.643068,-4.614813,4.620707,0.705604
108000,0.119710,-1.323994,8.829816,-4.004126,4.208493,0.720871
112000,0.184354,-1.283292,8.925584,-3.347636,3.979486,0.690337
116000,0.095768,-1.304840,8.930372,-2.859087,3.674142,0.690337
120000,0.148441,-1.300052,8.880095,-2.095728,2.864982,0.751406
124000,0.186748,-1.302446,9.016563,-1.011759,2.315363,0.278123
128000,0.268151,-1.276109,9.074024,-0.110996,1.719944,0.384994
132000,0.265756,-1.362301,9.102755,1.110379,1.704676,0.064383
136000,0.356736,-1.357512,9.112331,2.652363,1.964218,-0.027220
140000,0.337582,-1.261744,9.109938,3.919539,2.269562,-0.485235
144000,0.316035,-1.211466,8.985439,4.774501,1.887883,-1.065388
148000,0.275333,-1.271321,8.978256,5.537859,1.979486,-1.645541
152000,0.241814,-1.312023,8.822633,5.751600,1.658875,-1.492869
156000,0.366313,-1.369483,8.748413,6.469157,1.582539,-1.691342
160000,0.344765,-1.345541,8.892065,7.018775,2.819180,-1.813480
164000,0.287304,-1.295263,8.899248,7.553127,3.948951,-2.164625
168000,0.280122,-1.285686,8.789114,7.889005,4.590173,-2.515770
172000,0.280122,-1.259350,8.631097,7.263050,5.139791,-2.729510
176000,0.265756,-1.244985,8.585608,6.560760,5.475669,-3.111190
180000,0.299275,-1.278504,8.676587,6.331753,6.116890,-3.340197
184000,0.174777,-1.288081,8.497022,6.316485,7.048188,-3.202793
188000,0.004788,-1.237802,8.386889,5.858470,7.200860,-2.760045
192000,-0.081403,-1.280898,8.159439,5.339386,7.002387,-2.210426
196000,-0.076614,-1.259350,8.202535,4.560760,5.979486,-1.935617
200000,-0.004788,-1.211466,8.180987,3.889004,4.742845,-1.584472
204000,-0.045490,-1.194707,8.118738,2.957707,3.796279,-1.248594
208000,-0.222661,-1.242591,8.157045,2.102745,2.040554,-0.912716
212000,-0.260968,-1.302446,8.362947,1.507325,0.590173,-0.134090
216000,-0.107739,-1.309628,8.494628,1.079844,0.559638,0.644536
220000,-0.059855,-1.271321,8.590396,0.728699,0.788646,1.010948
224000,0.081403,-1.204283,8.549694,0.209615,1.353531,1.713238
228000,0.100556,-1.213860,8.597578,0.102745,1.353531,1.591100
232000,0.232238,-1.276109,8.700529,0.087478,1.277195,1.682703
236000,0.318429,-1.312023,8.836999,0.652363,1.674142,1.239955
240000,0.248997,-1.247379,8.937555,1.217249,1.781012,0.797207
244000,0.102951,-1.242591,8.877700,1.858470,1.521470,0.781940
248000,0.205901,-1.295263,8.889671,2.347020,0.422234,0.430795
252000,0.181959,-1.285686,8.846576,2.972974,-1.028148,0.201787
256000,0.076614,-1.235408,8.836999,3.430989,-2.051049,-0.027220
260000,0.124498,-1.244985,8.746018,3.171447,-2.707537,-0.118823
264000,0.093374,-1.261744,8.688558,3.186715,-2.707537,-0.118823
268000,0.086191,-1.209072,8.549694,2.682898,-2.417461,0.384994
272000,0.217872,-1.194707,8.508993,2.331753,-2.738072,0.125452
276000,0.423774,-1.127669,8.599973,1.201982,-1.394560,0.155986
280000,0.308852,-1.189918,8.904037,-0.172064,0.437501,-0.011953
284000,0.181959,-1.189918,8.549694,1.034043,0.773379,0.110184
288000,0.366313,-1.161188,8.599973,0.347020,1.353531,0.247589
292000,0.543484,-1.278504,8.973468,0.988241,1.338264,-0.469968
296000,0.560243,-1.163582,9.172187,2.621829,2.590173,-0.805846
300000,0.454898,-1.192312,9.069236,3.598928,3.826814,-1.111190
304000,0.356736,-1.199495,8.973468,4.408089,3.002386,-1.676075
308000,0.301669,-1.142034,8.892065,5.079844,2.315363,-2.149358
312000,0.229843,-1.271321,8.839393,5.278317,1.781012,-2.240961
316000,0.095768,-1.307234,8.925584,5.980608,1.307730,-2.332564
320000,0.179565,-1.206678,8.827422,6.270684,1.200860,-2.088289
324000,0.213084,-1.244985,8.686164,5.812669,2.116890,-2.118823
328000,0.222661,-1.187524,8.566454,5.461524,2.468035,-2.225693
332000,0.102951,-1.156399,8.485051,4.667631,2.193226,-1.966151
336000,0.102951,-1.297657,8.473080,4.301219,2.147424,-2.103556
340000,0.100556,-1.266533,8.451532,3.644730,2.910783,-1.416533
344000,0.033519,-1.242591,8.245630,3.064577,3.552005,-1.050121
348000,0.011971,-1.211466,8.293514,2.087478,3.338264,-0.561571
352000,0.131681,-1.118092,8.202535,0.942440,3.231394,-0.317297
356000,0.098162,-1.211466,8.171411,0.224882,3.506203,-0.210426
360000,0.217872,-1.165976,8.252813,-0.065194,3.750478,-0.088289
364000,0.217872,-1.103727,8.372523,-0.675881,2.681776,-0.500503
368000,0.268151,-1.086968,8.362947,-0.874354,1.338264,-0.973785
372000,0.289698,-1.177947,8.535329,-0.935423,1.429867,-1.080655
376000,0.217872,-1.149217,8.492233,-0.324736,1.307730,-1.263861
380000,0.146046,-1.127669,8.631097,0.179081,-0.051049,-1.889816
384000,0.102951,-1.115698,8.547300,0.545493,-0.402194,-1.981419
388000,0.114922,-1.211466,8.564059,0.637096,-2.005247,-2.302029
392000,0.064643,-1.194707,8.525752,0.927172,-2.997614,-2.256228
396000,0.102951,-1.228225,8.425196,0.820302,-3.440362,-2.271495
400000,0.177171,-1.209072,8.487445,0.866104,-3.516698,-2.561571
404000,0.131681,-1.213860,8.429984,0.530226,-3.776240,-2.469968
408000,0.050278,-1.180341,8.255207,-0.019392,-3.822041,-2.210426
412000,0.160412,-1.256956,8.315063,-0.309469,-4.264789,-2.576838
416000,0.062249,-1.247379,8.518570,-0.523209,-3.745705,-1.966151
420000,0.057461,-1.314417,8.518570,-0.569010,-3.135018,-1.981419
424000,-0.064643,-1.352724,8.667010,-0.248400,-2.356392,-1.370732
428000,-0.062249,-1.307234,8.820239,-0.614812,-1.684637,-0.805846
432000,0.047884,-1.323994,8.700529,-0.645346,-0.249522,-0.256228
436000,-0.002394,-1.247379,8.813056,-0.477408,-0.173186,0.400261
440000,0.074220,-1.237802,8.815451,0.316485,0.040554,0.415528
444000,0.148441,-1.302446,8.774749,0.591295,0.727577,0.491864
448000,0.220267,-1.240196,8.851364,1.095111,1.185592,0.843009
452000,0.342371,-1.242591,8.741230,1.583661,0.956585,0.354459
456000,0.208296,-1.235408,8.614338,2.362287,-0.005247,-0.057755
460000,0.342371,-1.175553,8.626308,2.713432,-1.318224,-0.393632
464000,0.304064,-1.137246,8.599973,2.728699,-2.218988,-0.973785
468000,0.225055,-1.192312,8.664616,2.881371,-2.524331,-1.111190
472000,0.136469,-1.137246,8.528147,2.866104,-2.814408,-1.584472
476000,0.141258,-1.158794,8.477868,2.484425,-2.539598,-1.385999
480000,0.162806,-1.106121,8.439561,1.675264,-1.867843,-1.309663
484000,0.117316,-1.084573,8.432379,0.972974,-1.318224,-1.172258
488000,0.107739,-1.086968,8.468291,0.224882,-0.432728,-0.866915
492000,0.071826,-1.058237,8.475474,-0.736950,0.635974,-0.622640
496000,0.035913,-1.074997,8.475474,-1.256034,1.353531,-0.317297
500000,-0.023942,-1.060631,8.487445,-2.049927,2.101623,-0.011953
504000,0.064643,-1.089362,8.382100,-3.225499,3.216127,0.293391
508000,-0.057461,-1.170765,8.494628,-3.607178,1.552005,0.171253
512000,-0.011971,-1.051055,8.614338,-3.576644,0.147424,0.033849
516000,0.098162,-1.074997,8.547300,-3.851454,0.483302,0.003314
520000,-0.150835,-1.225831,8.611943,-2.660614,-0.432728,0.064383
524000,0.043096,-1.256956,8.784326,-1.561377,-0.066316,0.552933
528000,-0.043096,-1.151611,8.573636,-1.271301,-0.264789,0.507131
532000,-0.023942,-1.201889,8.482656,-1.485041,-1.318224,0.736139
536000,-0.059855,-1.259350,8.487445,-1.271301,-1.760972,0.720871
540000,-0.088585,-1.187524,8.429984,-1.561377,-2.478530,0.995681
544000,-0.021548,-1.211466,8.398860,-1.744583,-2.890743,1.178887
548000,-0.067038,-1.182736,8.492233,-1.729316,-3.577766,1.209421
552000,-0.031125,-1.182736,8.623915,-1.866720,-4.066316,1.255223
556000,-0.088585,-1.194707,8.549694,-1.958324,-4.112117,1.514765
560000,-0.081403,-1.211466,8.578424,-2.095728,-3.272423,1.545299
564000,-0.055067,-1.249773,8.710106,-1.897255,-2.829675,2.186520
568000,-0.095768,-1.244985,8.523358,-1.820919,-1.654102,2.369726
572000,-0.105345,-1.218649,8.520964,-2.248400,-1.257156,2.384994
576000,-0.028730,-1.213860,8.489840,-2.431606,-1.272423,2.568200
580000,-0.062249,-1.225831,8.556877,-2.324736,-1.531965,2.369726
584000,-0.045490,-1.197101,8.547300,-2.324736,-1.654102,2.629268
588000,0.002394,-1.204283,8.516175,-2.752217,-1.516698,2.598734
592000,-0.090980,-1.177947,8.635885,-2.843820,-1.776240,2.568200
596000,-0.172383,-1.242591,8.583213,-2.965957,-1.928911,2.888810
600000,-0.119710,-1.228225,8.537724,-3.088094,-1.883110,3.041482
604000,-0.146046,-1.235408,8.518570,-3.683514,-2.203721,3.438429
608000,-0.239420,-1.209072,8.678981,-3.820919,-2.203721,4.033849
612000,-0.143652,-1.228225,8.786720,-3.668247,-2.264789,4.614001
616000,-0.028730,-1.170765,8.779537,-3.317102,-2.234255,4.736139
620000,0.201113,-1.218649,8.839393,-2.950690,-2.173186,4.675070
624000,0.251391,-1.201889,8.896853,-2.721682,-2.096850,4.247589
628000,0.229843,-1.139640,8.904037,-2.416339,-2.524331,3.774307
632000,0.222661,-1.230620,8.899248,-1.851454,-3.257156,3.377360
636000,0.265756,-1.197101,8.856153,-1.317102,-3.470896,3.148352
640000,0.210690,-1.170765,8.961497,-0.889621,-3.623568,2.797207
644000,0.270545,-1.194707,8.884883,-0.385804,-3.944179,2.904078
648000,0.227449,-1.154005,8.827422,0.026409,-4.081583,2.904078
652000,0.222661,-1.168370,8.760384,0.179081,-4.310591,2.598734
656000,0.282516,-1.225831,8.769960,0.194348,-4.142652,2.400261
660000,0.270545,-1.237802,8.619126,0.209615,-4.096850,2.430795
664000,0.268151,-1.187524,8.779537,0.224882,-4.127385,2.339192
668000,0.373495,-1.242591,8.803479,0.179081,-3.272423,2.583467
672000,0.351948,-1.228225,8.769960,0.179081,-2.188453,2.690337
676000,0.447716,-1.175553,8.669404,-0.004125,-0.951812,2.598734
680000,0.368707,-1.177947,8.710106,-0.462140,0.284829,2.720871
684000,0.399832,-1.165976,8.674192,-1.485041,0.422234,2.873543
688000,0.313640,-1.247379,8.712500,-1.408705,0.742844,2.888810
692000,0.325611,-1.233014,8.489840,-0.874354,0.147424,2.690337
696000,0.351948,-1.048660,8.408437,-3.027026,-2.478530,2.155986
700000,0.536301,-1.307234,8.987833,-2.202598,-0.524331,2.400261
704000,0.464475,-1.268927,8.966286,-1.133896,0.941318,2.262856
708000,0.478840,-1.197101,8.710106,-0.935423,0.574905,1.911711
712000,0.478840,-1.199495,8.667010,-0.874354,-0.356392,1.743772
716000,0.454898,-1.163582,8.638280,-1.011759,-1.318224,1.392627
720000,0.452504,-1.223437,8.681376,-1.194965,-1.531965,1.331558
724000,0.493206,-1.192312,8.698134,-1.362904,-1.318224,1.377360
728000,0.543484,-1.175553,8.667010,-1.362904,-1.348759,1.133085
732000,0.620098,-1.163582,8.662222,-1.500308,-1.562499,0.980413
736000,0.624887,-1.130063,8.614338,-1.927789,-1.073950,0.934612
740000,0.639252,-1.120486,8.676587,-2.034660,-1.257156,0.491864
744000,0.651223,-1.199495,8.719683,-1.729316,-1.898377,0.232322
748000,0.572214,-1.209072,8.966286,-1.194965,-2.539598,-0.149358
752000,0.620098,-1.266533,8.978256,-0.263667,-2.325858,-0.317297
756000,0.531513,-1.173159,9.045294,-0.110996,-1.944179,-0.408900
760000,0.543484,-1.261744,8.935161,0.881371,-1.272423,-0.485235
764000,0.560243,-1.266533,8.963891,1.400455,-1.028148,-0.500503
768000,0.574608,-1.264138,8.841787,1.843203,-1.623568,-0.989052
772000,0.656011,-1.319205,8.841787,1.919539,-1.959446,-1.462335
776000,0.600945,-1.276109,8.604761,2.469157,-0.738072,-1.676075
780000,0.526724,-1.189918,8.700529,1.843203,-2.005247,-1.935617
784000,0.591368,-1.276109,8.667010,1.782134,-2.020514,-2.088289
788000,0.572214,-1.326388,8.856153,1.705798,-0.799140,-1.966151
792000,0.646434,-1.369483,9.028535,2.423356,0.819180,-1.676075
796000,0.632069,-1.312023,8.975863,3.598928,2.193226,-1.767678
800000,0.541090,-1.314417,8.963891,3.461524,3.658875,-1.905083
804000,0.442927,-1.292869,8.662222,3.629463,3.582539,-2.088289
808000,0.430956,-1.185130,8.777143,3.659997,3.231394,-1.828747
812000,0.416591,-1.187524,8.590396,3.400455,3.170325,-2.088289
816000,0.486023,-1.189918,8.643068,3.186715,3.078722,-2.149358
820000,0.464475,-1.158794,8.492233,2.896638,2.788646,-2.698976
824000,0.462081,-1.242591,8.427590,2.469157,2.132157,-2.790579
828000,0.435745,-1.163582,8.499416,1.827936,1.597806,-3.004319
832000,0.411803,-1.168370,8.576031,1.354653,1.307730,-3.111190
836000,0.483629,-1.161188,8.619126,1.095111,1.506203,-3.141724
840000,0.497994,-1.144428,8.561666,0.728699,1.506203,-3.279129
844000,0.428562,-1.161188,8.523358,0.576027,1.155058,-3.508136
848000,0.421380,-1.194707,8.561666,0.255417,0.422234,-3.752411
852000,0.497994,-1.170765,8.623915,0.285951,-0.509064,-3.950884
856000,0.524330,-1.146823,8.674192,0.499691,-0.493797,-4.332564
860000,0.550666,-1.127669,8.734048,0.682898,-0.264789,-4.393632
864000,0.476446,-1.134852,8.731653,0.560760,-0.249522,-4.760045
868000,0.464475,-1.170765,8.631097,0.652363,-0.356392,-4.790579
872000,0.418985,-1.115698,8.566454,0.438623,-0.890743,-4.927983
876000,0.277727,-1.204283,8.621520,0.423356,-1.257156,-5.416533
880000,0.390255,-1.134852,8.638280,0.576027,-1.104484,-5.263861
884000,0.287304,-1.187524,8.590396,0.285951,-0.570133,-5.279129
888000,0.198719,-1.175553,8.535329,-0.019392,-0.295324,-5.553937
892000,0.105345,-1.134852,8.518570,-0.477408,-0.295324,-5.630273
896000,-0.009577,-1.249773,8.451532,-0.843820,-0.692270,-5.416533
900000,-0.040701,-1.340753,8.408437,-1.164430,-0.722805,-5.034853
904000,-0.172383,-1.314417,8.401254,-1.683514,-0.661736,-4.729510
908000,-0.158017,-1.230620,8.341399,-2.278934,-0.677003,-4.485235
912000,-0.167594,-1.295263,8.324639,-2.660614,-0.570133,-4.011953
916000,-0.203507,-1.319205,8.372523,-3.179698,-0.493797,-3.538671
920000,-0.177171,-1.367089,8.444349,-3.439240,-0.936545,-3.156991
924000,-0.299275,-1.455675,8.528147,-3.546110,-1.196087,-2.653174
928000,-0.220267,-1.455675,8.695741,-3.118629,-1.883110,-2.073022
932000,-0.282516,-1.484405,8.963891,-2.599545,-1.593034,-1.370732
936000,-0.251391,-1.493982,8.939949,-1.729316,-0.295324,-0.760045
940000,-0.227449,-1.515530,8.973468,-0.813286,0.956585,-0.042487
944000,-0.260968,-1.486799,9.030929,0.331753,1.872615,0.369726
948000,-0.162806,-1.501164,9.071630,1.553127,2.529104,0.781940
952000,-0.177171,-1.417367,9.105149,2.606562,2.941318,0.995681
956000,-0.225055,-1.477222,9.028535,3.675264,2.987119,1.087284
960000,-0.220267,-1.403002,8.860941,4.499691,2.910783,1.072016
964000,-0.184354,-1.398214,8.760384,4.606562,2.498570,1.224688
968000,-0.193930,-1.369483,8.561666,4.713432,1.216127,1.026215
972000,-0.253785,-1.328782,8.516175,4.789768,-0.417461,1.194154
976000,-0.177171,-1.343147,8.362947,4.484425,-1.455629,1.484230
980000,-0.215478,-1.297657,8.573636,4.499691,-2.906011,1.667436
984000,-0.155623,-1.242591,8.463503,4.194348,-3.089217,1.606368
988000,-0.043096,-1.134852,8.367735,2.835569,-2.218988,2.018581
992000,0.138864,-1.036689,8.391677,1.324119,-0.615934,1.789574
996000,0.131681,-1.063026,8.343793,-0.355270,1.597806,2.064383
1000000,-0.031125,-1.113304,8.621520,-0.828552,2.040554,2.308658
1004000,0.057461,-1.204283,8.571242,-0.507942,2.406966,2.415528
1008000,0.143652,-1.115698,8.408437,-1.149163,3.032921,3.010948
1012000,0.038307,-1.046266,8.434772,-1.958324,3.918417,2.858276
1016000,0.090980,-1.067814,8.544906,-3.011759,3.918417,2.827742
1020000,0.016759,-1.072602,8.422802,-3.652980,3.506203,3.072016
1024000,-0.007183,-1.067814,8.446744,-4.080462,3.506203,2.888810
1028000,0.045490,-1.137246,8.473080,-6.019393,-2.936545,2.293390
1032000,0.227449,-1.249773,9.016563,-3.561377,6.620707,3.911711
1036000,0.035913,-1.161188,8.743625,-1.240766,2.926050,3.087284
1040000,0.079009,-1.051055,8.664616,-1.561377,0.468035,3.087284
1044000,0.093374,-1.144428,8.633492,-1.927789,-1.470896,2.873543
1048000,0.160412,-1.154005,8.564059,-1.530843,-1.440362,2.552932
1052000,0.162806,-1.163582,8.683769,-0.859087,-0.631201,2.888810
1056000,0.150835,-1.139640,8.671799,-0.217866,-1.883110,2.659803
1060000,0.203507,-1.118092,8.576031,0.133279,-2.051049,2.537665
1064000,0.225055,-1.072602,8.554482,-0.492675,-1.394560,2.583467
1068000,0.263362,-1.017536,8.568848,-0.233133,-0.799140,2.507131
1072000,0.330400,-1.106121,8.516175,-0.172064,-0.692270,1.881177
1076000,0.289698,-1.142034,8.667010,0.118012,-0.967079,1.621635
1080000,0.234632,-1.082179,8.676587,0.133279,-1.150285,1.346826
1084000,0.287304,-1.151611,8.686164,0.133279,-0.951812,1.087284
1088000,0.205901,-1.173159,8.676587,-0.080461,-1.119751,1.224688
1092000,0.210690,-1.235408,8.717288,-0.324736,-1.241889,1.102551
1096000,0.167594,-1.192312,8.870518,-0.569010,-1.196087,1.407894
1100000,0.296881,-1.228225,8.939949,-0.370538,-0.005247,1.575833
1104000,0.275333,-1.204283,8.959103,-0.324736,0.926050,1.896444
1108000,0.323217,-1.295263,8.935161,-0.355270,2.010020,2.140719
1112000,0.378284,-1.307234,8.959103,-0.492675,2.788646,2.217055
1116000,0.395043,-1.319205,9.047688,-0.172064,3.139791,2.461329
1120000,0.402226,-1.295263,8.918402,0.285951,3.979486,2.400261
1124000,0.392649,-1.225831,8.860941,0.270684,4.040555,2.781940
1128000,0.435745,-1.213860,8.813056,0.347020,3.567272,2.522398
1132000,0.363919,-1.182736,8.858546,0.362287,2.971852,2.323925
1136000,0.409408,-1.197101,8.827422,0.469157,2.376432,2.186520
1140000,0.514753,-1.165976,8.911219,0.896638,1.200860,1.835375
1144000,0.536301,-1.187524,8.966286,0.820302,1.460402,1.453696
1148000,0.450110,-1.170765,8.734048,0.896638,1.964218,1.331558
1152000,0.521936,-1.192312,8.786720,0.805035,1.735211,1.072016
1156000,0.399832,-1.194707,8.722076,0.591295,1.368798,0.904078
1160000,0.447716,-1.213860,8.829816,0.347020,1.719944,0.843009
1164000,0.418985,-1.194707,8.746018,0.438623,1.903150,0.873543
1168000,0.404620,-1.259350,8.767567,0.362287,1.552005,0.430795
1172000,0.488417,-1.213860,8.829816,0.621829,1.582539,0.140719
1176000,0.505177,-1.247379,8.935161,0.911905,1.826814,0.064383
1180000,0.514753,-1.249773,9.021352,1.782134,2.193226,0.171253
1184000,0.442927,-1.271321,8.975863,2.469157,2.666508,0.140719
1188000,0.445322,-1.273715,9.057265,2.972974,2.803913,-0.195159
1192000,0.433351,-1.247379,8.918402,3.766867,3.032921,0.033849
1196000,0.469264,-1.204283,8.987833,4.224883,3.613073,-0.149358
1200000,0.421380,-1.266533,8.858546,4.957707,3.750478,-0.179892
1204000,0.509965,-1.273715,8.815451,5.614195,2.605440,-0.546304
1208000,0.651223,-1.259350,8.559271,6.240149,3.261928,-1.050121
1212000,0.545878,-1.149217,8.506598,5.934806,2.025287,-1.630274
1216000,0.584185,-1.098939,8.413225,5.537859,1.643608,-2.088289
1220000,0.495600,-1.122881,8.322245,5.156180,1.948951,-2.515770
1224000,0.454898,-1.139640,8.171411,4.331753,1.994753,-2.698976
1228000,0.507571,-1.146823,8.109161,3.644730,1.826814,-2.943251
1232000,0.426168,-1.077391,8.094796,2.408089,1.811547,-3.202793
1236000,0.280122,-1.079785,7.922413,1.354653,1.368798,-3.477602
1240000,0.229843,-1.089362,7.987057,0.240150,0.926050,-3.401266
1244000,0.210690,-1.154005,8.027759,-0.691148,0.666508,-3.385999
1248000,0.146046,-1.130063,8.092402,-1.561377,0.208493,-3.156991
1252000,0.146046,-1.173159,8.142680,-2.645346,-0.188453,-3.218060
1256000,0.167594,-1.209072,8.200141,-3.210232,-0.203721,-3.111190
1260000,0.107739,-1.211466,8.319851,-3.866720,-0.127385,-2.729510
1264000,0.040701,-1.256956,8.339005,-4.202599,-0.325858,-2.408900
1268000,0.011971,-1.278504,8.420407,-4.385805,-0.447995,-2.286762
1272000,-0.004788,-1.290475,8.518570,-4.370538,-1.043415,-1.981419
1276000,0.079009,-1.288081,8.599973,-4.278934,-0.799140,-1.752411
1280000,0.040701,-1.357512,8.647857,-3.805652,-0.814408,-1.553938
1284000,0.083797,-1.326388,8.609550,-3.469774,-1.211354,-1.233327
1288000,0.019154,-1.280898,8.573636,-2.828552,-2.280056,-1.233327
1292000,0.098162,-1.276109,8.662222,-2.553744,-2.615934,-1.294396
1296000,0.191536,-1.316811,8.678981,-1.943056,-2.295324,-1.263861
1300000,0.069432,-1.300052,8.614338,-1.698782,-2.280056,-1.462335
1304000,-0.040701,-1.304840,8.468291,-1.683514,-2.447995,-1.370732
1308000,-0.088585,-1.228225,8.492233,-2.080461,-2.677003,-1.095922
1312000,-0.045490,-1.233014,8.487445,-2.477408,-2.753339,-0.958518
1316000,-0.069432,-1.261744,8.463503,-2.752217,-2.615934,-0.515770
1320000,-0.002394,-1.161188,8.537724,-3.301835,-2.325858,-0.073022
1324000,0.028730,-1.139640,8.525752,-3.836186,-1.883110,-0.073022
1328000,0.062249,-1.185130,8.607155,-4.126263,-1.272423,0.003314
1332000,0.112527,-1.187524,8.748413,-4.141530,-0.264789,0.323925
1336000,0.069432,-1.225831,8.762778,-3.943056,0.559638,0.171253
1340000,0.038307,-1.297657,8.743625,-3.866720,0.926050,0.476597
1344000,0.002394,-1.187524,8.710106,-3.790385,1.002386,0.430795
1348000,0.023942,-1.197101,8.738836,-3.530843,0.300096,0.262856
1352000,0.107739,-1.175553,8.688558,-3.011759,-0.249522,0.247589
1356000,0.052672,-1.254562,8.693346,-2.523209,-0.799140,-0.011953
1360000,0.050278,-1.213860,8.729259,-2.294202,-1.302957,-0.225693
1364000,-0.026336,-1.261744,8.611943,-2.004125,-2.081583,-0.653174
1368000,0.021548,-1.187524,8.705317,-2.401072,-2.310591,-0.240961
1372000,0.011971,-1.163582,8.645462,-2.248400,-2.264789,0.018581
1376000,-0.026336,-1.268927,8.657434,-2.248400,-1.699904,-0.027220
1380000,-0.114922,-1.247379,8.643068,-2.340003,-0.875476,0.446062
1384000,-0.229843,-1.240196,8.791509,-2.553744,-0.997614,1.148352
1388000,-0.215478,-1.244985,9.047688,-2.263667,-1.547232,1.514765
1392000,-0.112527,-1.273715,9.198523,-1.347636,-0.982347,2.064383
1396000,-0.086191,-1.302446,9.263166,-0.401072,-0.066316,2.430795
1400000,0.004788,-1.290475,9.270349,0.331753,0.635974,2.675070
1404000,0.047884,-1.295263,9.167398,1.186714,1.063455,3.072016
1408000,0.150835,-1.242591,9.050082,1.873737,1.216127,2.827742
1412000,0.122104,-1.223437,8.985439,2.423356,0.712310,2.507131
1416000,0.141258,-1.201889,8.961497,2.499691,0.590173,2.262856
1420000,0.172383,-1.288081,9.018958,2.881371,0.559638,2.064383
1424000,0.210690,-1.254562,8.882488,2.759233,0.300096,1.835375
1428000,0.160412,-1.312023,8.736442,2.759233,-0.096850,2.018581
1432000,0.213084,-1.240196,8.774749,2.270684,-0.478530,1.865910
1436000,0.143652,-1.254562,8.743625,1.995875,-0.753339,1.789574
1440000,0.237026,-1.268927,8.853758,1.644730,-0.386927,1.988047
1444000,0.268151,-1.197101,8.781932,1.324119,0.193226,2.033848
1448000,0.308852,-1.216254,8.997410,0.911905,0.132157,2.003314
1452000,0.447716,-1.211466,9.040505,1.156180,1.155058,2.079650
1456000,0.450110,-1.201889,8.961497,1.400455,2.864982,2.110184
1460000,0.433351,-1.158794,8.894460,1.263050,3.719944,1.926978
1464000,0.433351,-1.180341,8.968679,1.049310,4.071089,1.652169
1468000,0.332794,-1.144428,8.875306,1.095111,3.735211,1.591100
1472000,0.368707,-1.225831,8.937555,1.232516,3.124524,1.362093
1476000,0.411803,-1.139640,8.870518,1.766867,2.468035,1.239955
1480000,0.483629,-1.151611,8.865729,2.056943,1.964218,0.843009
1484000,0.555455,-1.161188,8.889671,2.255417,1.674142,0.339192
1488000,0.584185,-1.151611,8.736442,2.469157,0.727577,-0.302029
1492000,0.598550,-1.130063,8.777143,2.270684,0.330631,-0.805846
1496000,0.512359,-1.194707,8.698134,2.179081,-0.203721,-1.156991
1500000,0.471658,-1.235408,8.681376,2.148547,-0.127385,-1.309663
1504000,0.402226,-1.175553,8.607155,1.721066,-0.799140,-1.599739
1508000,0.366313,-1.185130,8.494628,1.583661,-0.539598,-1.615006
1512000,0.373495,-1.168370,8.501810,1.034043,0.223760,-1.355464
1516000,0.287304,-1.163582,8.396465,-0.049927,-0.646469,-1.355464
1520000,0.430956,-1.197101,8.556877,0.179081,3.948951,-0.347831
1524000,0.316035,-1.244985,8.391677,0.209615,3.078722,-0.607373
1528000,0.320823,-1.185130,8.456321,-0.278934,2.330631,-0.576838
1532000,0.395043,-1.192312,8.456321,-0.462140,1.399333,-0.851648
1536000,0.378284,-1.163582,8.504205,-0.294202,1.185592,-0.943251
1540000,0.392649,-1.151611,8.556877,0.072211,1.643608,-1.248594
1544000,0.323217,-1.218649,8.497022,0.743966,1.155058,-1.309663
1548000,0.337582,-1.197101,8.508993,1.003508,0.055821,-1.523403
1552000,0.428562,-1.209072,8.544906,1.568394,-0.005247,-1.737144
1556000,0.426168,-1.187524,8.537724,1.904272,-0.005247,-1.920350
1560000,0.464475,-1.177947,8.367735,2.148547,-0.432728,-2.378365
1564000,0.440533,-1.199495,8.312668,2.041676,-1.119751,-2.668442
1568000,0.421380,-1.182736,8.159439,1.583661,-1.776240,-2.760045
1572000,0.368707,-1.213860,8.171411,1.110379,-1.638835,-3.050121
1576000,0.301669,-1.223437,8.109161,0.362287,-1.501431,-2.882182
1580000,0.220267,-1.240196,7.999028,-0.462140,-1.364026,-3.050121
1584000,0.241814,-1.237802,7.975086,-1.240766,-1.241889,-2.439434
1588000,0.227449,-1.223437,7.951144,-2.080461,-1.089217,-2.546304
1592000,0.241814,-1.278504,8.092402,-2.920156,-0.906011,-2.439434
1596000,0.246603,-1.237802,8.015787,-3.912522,-0.799140,-2.103556
1600000,0.289698,-1.321599,8.078036,-5.072827,-0.554866,-2.286762
1604000,0.306458,-1.302446,8.025364,-6.248401,0.086356,-2.378365
1608000,0.306458,-1.146823,8.003817,-8.569011,0.116890,-2.286762
1612000,-0.040701,-1.489193,8.750807,-6.477407,-3.348759,-2.057755
1616000,0.098162,-1.391031,8.683769,-4.416339,1.399333,-0.011953
1620000,0.047884,-1.304840,8.585608,-4.416339,-1.196087,-0.118823
1624000,0.359130,-1.307234,8.743625,-3.775118,0.574905,0.430795
1628000,0.330400,-1.273715,8.712500,-3.561377,0.926050,0.354459
1632000,0.354342,-1.225831,8.532935,-3.561377,0.773379,-0.011953
1636000,0.354342,-1.221043,8.511387,-2.920156,0.376432,-0.485235
1640000,0.407014,-1.314417,8.475474,-2.660614,-0.280056,-1.141724
1644000,0.330400,-1.209072,8.501810,-2.477408,-1.394560,-1.645541
1648000,0.100556,-1.161188,8.097190,-2.233133,-4.371659,-2.500503
1652000,-0.076614,-1.086968,7.484274,-2.263667,-9.470897,-3.187526
1656000,0.644040,-1.388637,8.714894,-8.263667,-15.470897,-4.302029
1660000,0.478840,-1.393425,9.217676,-4.278934,-5.531965,-2.927984
1664000,0.248997,-1.163582,8.734048,-4.996491,-3.272423,-3.553938
1668000,0.268151,-1.242591,8.638280,-4.584278,-1.730438,-3.660808
1672000,0.165200,-1.273715,8.688558,-4.706415,-1.867843,-3.431800
1676000,0.016759,-1.271321,8.597578,-4.507942,-1.318224,-2.958518
1680000,0.040701,-1.252167,8.760384,-4.874354,-1.119751,-2.469968
1684000,0.071826,-1.254562,8.741230,-4.523210,0.605440,-2.302029
1688000,0.134075,-1.230620,8.786720,-5.057561,2.727577,-2.164625
1692000,-0.153229,-1.216254,8.894460,-5.164431,0.635974,-1.813480
1696000,-0.004788,-1.247379,8.995016,-4.736950,-0.570133,-1.706609
1700000,0.093374,-1.252167,9.124303,-3.988858,-0.066316,-1.523403
1704000,0.105345,-1.242591,9.095572,-3.546110,1.109257,-1.508136
1708000,-0.028730,-1.249773,8.954314,-3.515576,1.460402,-1.340197
1712000,-0.007183,-1.211466,8.932767,-3.393438,1.399333,-1.202793
1716000,-0.031125,-1.278504,8.995016,-3.256034,0.697043,-1.431800
1720000,-0.043096,-1.333570,9.059659,-2.782751,0.742844,-1.294396
1724000,-0.095768,-1.304840,9.016563,-2.049927,1.048188,-1.019587
1728000,-0.090980,-1.307234,9.105149,-1.301835,1.063455,-0.973785
1732000,-0.201113,-1.359907,9.045294,-0.691148,0.498570,-0.882182
1736000,-0.181959,-1.367089,9.006987,-0.492675,0.101623,-0.790579
1740000,-0.227449,-1.381454,8.997410,0.011142,-0.127385,-0.668442
1744000,-0.191536,-1.422156,9.026140,0.331753,-0.127385,-0.424167
1748000,-0.349553,-1.510741,8.968679,0.392821,-0.127385,-0.363098
1752000,-0.416591,-1.460463,8.925584,0.392821,0.086356,0.308658
1756000,-0.416591,-1.477222,8.839393,0.194348,-0.173186,0.720871
1760000,-0.335188,-1.474828,8.920795,-0.065194,0.071089,1.453696
1764000,-0.318429,-1.395820,8.975863,-0.202598,-0.310591,1.896444
1768000,-0.289698,-1.467646,9.042900,-0.187331,0.284829,2.217055
1772000,-0.282516,-1.513135,8.944737,-0.049927,1.307730,3.148352
1776000,-0.198719,-1.458069,8.896853,-0.340003,1.292463,3.056749
1780000,-0.100556,-1.417367,8.944737,-0.370538,1.124524,3.545299
1784000,-0.040701,-1.412579,8.925584,-0.340003,1.048188,3.484231
1788000,-0.014365,-1.431733,8.975863,-0.004125,0.712310,3.331558
1792000,0.090980,-1.362301,9.157822,0.957707,0.132157,3.194154
1796000,0.124498,-1.367089,9.248801,1.751600,-0.173186,2.904078
1800000,0.090980,-1.335965,9.196129,2.621829,-0.127385,2.659803
1804000,0.033519,-1.335965,9.174581,3.430989,-0.066316,2.720871
1808000,0.086191,-1.268927,9.124303,4.270684,0.223760,2.980413
1812000,0.069432,-1.233014,8.932767,4.438623,0.498570,2.843009
1816000,0.148441,-1.266533,8.856153,4.560760,0.742844,3.209421
1820000,0.098162,-1.268927,8.753201,4.514959,1.124524,3.178887
1824000,0.217872,-1.242591,8.602366,4.163814,1.185592,3.499497
1828000,0.258574,-1.273715,8.580819,3.721066,1.490936,3.392627
1832000,0.244209,-1.221043,8.475474,3.339386,1.643608,3.377360
1836000,0.306458,-1.192312,8.485051,2.667631,1.552005,3.255223
1840000,0.330400,-1.197101,8.497022,2.209615,1.689409,3.362093
1844000,0.256180,-1.110910,8.413225,1.919539,1.658875,3.255223
1848000,0.222661,-1.110910,8.355764,1.156180,1.414600,3.407894
1852000,0.306458,-1.106121,8.413225,0.896638,1.216127,3.423162
1856000,0.356736,-1.019930,8.377312,0.530226,1.384066,3.072016
1860000,0.347159,-1.086968,8.432379,0.545493,0.971852,2.934612
1864000,0.359130,-1.070208,8.355764,0.560760,0.895516,2.873543
1868000,0.380678,-1.077391,8.384495,0.438623,0.712310,2.446062
1872000,0.397437,-1.098939,8.370130,0.423356,0.345898,2.201787
1876000,0.454898,-1.122881,8.427590,0.194348,-0.325858,1.896444
1880000,0.488417,-1.106121,8.370130,0.118012,-0.646469,1.896444
1884000,0.519542,-1.144428,8.401254,-0.156797,-0.768606,1.591100
1888000,0.512359,-1.122881,8.401254,-0.080461,-0.509064,1.194154
1892000,0.598550,-1.187524,8.437167,-0.309469,-0.722805,0.858276
1896000,0.591368,-1.175553,8.425196,-0.202598,-0.646469,0.812474
1900000,0.593762,-1.264138,8.544906,-0.324736,-0.860209,0.232322
1904000,0.577003,-1.343147,8.492233,-0.553744,-0.600667,0.033849
1908000,0.603339,-1.297657,8.487445,-0.523209,-0.860209,-0.302029
1912000,0.407014,-1.407791,8.597578,-0.553744,-0.997614,-0.332564
1916000,0.464475,-1.407791,8.717288,-0.340003,-0.982347,-0.424167
1920000,0.351948,-1.395820,8.729259,0.285951,-0.677003,-0.088289
1924000,0.323217,-1.441309,8.736442,0.850837,0.071089,0.201787
1928000,0.421380,-1.441309,8.767567,1.278317,1.017653,0.476597
1932000,0.409408,-1.465251,8.805874,2.102745,2.086356,0.644536
1936000,0.476446,-1.410185,8.798691,2.621829,2.773379,0.522398
1940000,0.474052,-1.438915,8.652645,3.003508,3.399333,0.033849
1944000,0.347159,-1.403002,8.592790,2.988241,3.857348,0.339192
1948000,0.328006,-1.482011,8.487445,2.743967,3.811547,0.049116
1952000,0.296881,-1.367089,8.312668,2.331753,3.521470,0.155986
1956000,0.299275,-1.312023,8.331821,1.995875,2.849715,0.278123
1960000,0.356736,-1.343147,8.334216,1.492058,2.437501,0.308658
1964000,0.337582,-1.304840,8.386889,1.018775,2.223760,0.094917
1968000,0.251391,-1.280898,8.415619,0.408088,2.025287,0.049116
1972000,0.337582,-1.276109,8.327033,0.133279,1.796279,0.232322
1976000,0.342371,-1.331176,8.401254,-0.080461,1.658875,0.201787
1980000,0.296881,-1.237802,8.394072,-0.416339,1.338264,-0.057755
1984000,0.399832,-1.230620,8.456321,-0.920156,1.322997,0.155986
1988000,0.411803,-1.256956,8.456321,-1.011759,1.307730,0.094917
1992000,0.442927,-1.211466,8.726865,-1.103362,1.170325,-0.164625
1996000,0.464475,-1.249773,8.578424,-0.736950,0.987119,-0.500503
