time_us,ax,ay,az,gx,gy,gz
0,-0.299275,-1.561020,8.542512,-0.828552,2.590173,1.041482
4000,-0.275333,-1.596933,8.547300,-0.736950,3.765745,1.026215
8000,-0.251391,-1.503559,8.516175,-0.706415,4.101623,1.056749
12000,-0.270545,-1.422156,8.295909,-1.057560,3.490936,0.736139
16000,-0.222661,-1.474828,8.394072,-0.965957,3.032921,0.781940
20000,-0.213084,-1.343147,8.482656,-0.691148,2.987119,0.552933
24000,-0.038307,-1.355118,8.724471,-0.278934,5.109257,0.507131
28000,0.033519,-1.350330,8.681376,0.576027,5.872615,0.278123
32000,0.062249,-1.321599,8.513782,1.079844,6.376432,-0.546304
36000,0.007183,-1.352724,8.362947,1.324119,6.330631,-1.355464
40000,-0.138864,-1.312023,8.135497,0.805035,4.651241,-1.889816
44000,-0.265756,-1.443704,8.346188,0.499691,3.460402,-2.302029
48000,-0.328006,-1.417367,8.501810,-0.355270,2.284829,-2.408900
52000,-0.354342,-1.520318,8.523358,-0.798018,1.368798,-2.531037
56000,-0.519542,-1.505953,8.501810,-1.103362,0.956585,-2.469968
60000,-0.541090,-1.527501,8.568848,-1.988858,0.742844,-2.073022
64000,-0.533907,-1.572991,8.449138,-2.874354,0.254295,-2.027220
68000,-0.596156,-1.601721,8.552089,-3.515576,-0.554866,-1.721877
72000,-0.627281,-1.613692,8.621520,-4.507942,-0.310591,-1.385999
76000,-0.672771,-1.707066,8.743625,-5.286569,0.406966,-0.973785
80000,-0.567426,-1.685518,8.796297,-5.423973,1.567272,-0.210426
84000,-0.648829,-1.723825,8.839393,-5.683515,2.880249,0.323925
88000,-0.560243,-1.750161,8.932767,-5.607179,3.918417,0.995681
92000,-0.474052,-1.731008,8.944737,-5.393438,5.948951,1.407894
96000,-0.519542,-1.733402,8.762778,-5.607179,7.460402,1.667436
100000,-0.469264,-1.668759,8.705317,-5.698782,7.811547,2.247589
104000,-0.445322,-1.726219,8.717288,-6.126263,8.269562,2.293390
108000,-0.383072,-1.678335,8.796297,-6.278934,8.223760,2.552932
112000,-0.311246,-1.680730,8.868123,-6.217866,8.086355,2.598734
116000,-0.313640,-1.668759,8.963891,-5.805653,7.796279,2.400261
120000,-0.270545,-1.719037,9.030929,-5.149163,7.781012,2.507131
124000,-0.153229,-1.805228,9.083601,-4.034659,7.933684,2.140719
128000,-0.177171,-1.709460,9.083601,-2.965957,7.719944,1.789574
132000,-0.258574,-1.690306,9.117120,-1.469774,7.414600,1.270490
136000,-0.289698,-1.707066,9.176975,-0.202598,6.712310,0.888810
140000,-0.392649,-1.673547,8.975863,0.835569,5.490936,0.537665
144000,-0.351948,-1.711854,8.913613,2.163814,4.864982,0.705604
148000,-0.438139,-1.604115,8.825027,2.652363,4.590173,0.705604
152000,-0.328006,-1.527501,8.535329,3.278317,3.109257,0.705604
156000,-0.462081,-1.534683,8.350976,2.896638,1.475669,0.629268
160000,-0.287304,-1.541866,8.267179,2.102745,0.529104,0.522398
164000,-0.251391,-1.419762,8.370130,0.835569,0.834447,0.247589
168000,-0.268151,-1.448492,8.298303,-0.324736,1.658875,0.598734
172000,-0.332794,-1.462857,8.295909,-1.210232,2.742844,0.461329
176000,-0.198719,-1.393425,8.219295,-2.263667,3.979486,0.552933
180000,-0.258574,-1.453280,8.224083,-3.439240,5.521471,0.843009
184000,-0.280122,-1.462857,8.133103,-4.294202,6.971852,1.010948
188000,-0.361524,-1.417367,8.008605,-5.805653,7.842081,1.392627
192000,-0.347159,-1.436521,8.101978,-7.149163,8.819180,1.331558
196000,-0.450110,-1.484405,8.056489,-8.538477,10.284829,1.728505
200000,-0.404620,-1.462857,8.015787,-9.637713,11.048187,2.094917
204000,-0.471658,-1.527501,8.018182,-10.492675,11.536737,2.461329
208000,-0.572214,-1.572991,7.831434,-11.729317,11.353531,2.736139
212000,-0.574608,-1.541866,7.879318,-13.057561,11.139791,2.934612
216000,-0.603339,-1.582567,7.874529,-14.263667,11.002386,2.980413
220000,-0.667982,-1.556231,7.843405,-15.423972,10.010019,3.453696
224000,-0.684742,-1.666364,8.020576,-16.080460,8.803913,3.728505
228000,-0.634463,-1.644817,8.118738,-16.553743,8.132157,3.774307
232000,-0.646434,-1.663970,8.135497,-16.691147,7.490936,3.652169
236000,-0.715866,-1.666364,8.135497,-16.492674,6.880249,4.003314
240000,-0.732626,-1.695095,8.075643,-16.263666,5.979486,4.110185
244000,-0.696713,-1.728614,8.171411,-15.912522,5.353531,4.140719
248000,-0.667982,-1.637634,8.147469,-16.156796,4.956585,4.430795
252000,-0.593762,-1.632846,8.068460,-16.401072,4.040555,4.400261
256000,-0.495600,-1.697489,7.977480,-17.149162,2.819180,4.446063
260000,-0.464475,-1.628057,7.903260,-18.187330,2.177959,4.140719
264000,-0.469264,-1.582567,7.869741,-19.439240,1.872615,3.972780
268000,-0.545878,-1.673547,7.788338,-21.133896,2.361165,4.064383
272000,-0.617704,-1.642422,7.668628,-23.103361,3.139791,4.400261
276000,-0.715866,-1.587356,7.457938,-25.240767,3.842081,4.568200
280000,-0.727837,-1.673547,7.354988,-27.759850,4.101623,5.301024
284000,-0.787692,-1.651999,7.201759,-30.813286,4.620707,5.697971
288000,-0.849942,-1.654393,6.907272,-34.095726,5.032921,6.278123
292000,-0.888249,-1.594538,6.687006,-38.004124,5.109257,6.873543
296000,-0.830788,-1.630451,6.399701,-42.110996,5.032921,7.010948
300000,-0.715866,-1.649605,6.138733,-46.752216,3.613073,7.041482
304000,-0.569820,-1.774103,6.059724,-50.950691,2.437501,6.949879
308000,-0.562637,-1.458069,5.822699,-58.920155,-1.638835,5.453696
312000,-0.342371,-1.707066,6.112397,-63.775116,0.269562,5.224689
316000,-0.301669,-1.675941,6.042965,-69.408707,0.208493,4.491864
320000,-0.222661,-1.728614,5.760449,-74.920158,-0.188453,3.804841
324000,-0.119710,-1.733402,5.726931,-81.027023,0.406966,2.888810
328000,-0.134075,-1.778892,5.528212,-86.233131,1.322997,2.140719
332000,-0.210690,-1.869871,5.420473,-92.843819,1.597806,1.362093
336000,0.009577,-1.857901,5.169082,-99.072830,2.635974,0.018581
340000,0.081403,-1.912967,4.975151,-105.759850,3.735211,-1.355464
344000,0.000000,-1.999158,4.714183,-113.042290,3.521470,-3.095922
348000,-0.035913,-2.161964,4.443638,-120.446869,1.796279,-4.866915
352000,-0.153229,-2.190695,4.426879,-127.561378,-0.844942,-6.668441
356000,-0.131681,-2.384625,4.197036,-134.660614,-4.509064,-8.179892
360000,-0.375890,-2.523489,4.072537,-141.164444,-9.028149,-9.492869
364000,-0.404620,-2.616863,3.699042,-148.767487,-16.447996,-10.897449
368000,-0.330400,-2.896984,3.533842,-156.263672,-19.623568,-12.164625
372000,-0.435745,-3.131616,3.383007,-164.019394,-23.959446,-12.714244
376000,-0.689530,-3.378219,3.213019,-171.881989,-31.196087,-13.721877
380000,-0.562637,-3.648763,3.301604,-179.591919,-35.302959,-13.706610
384000,-0.684742,-3.873818,3.399766,-187.362915,-39.791508,-13.187526
388000,-0.521936,-4.137180,3.471592,-194.095734,-42.722805,-12.531037
392000,-0.306458,-4.304775,3.754108,-201.591919,-42.799141,-11.782946
396000,-0.043096,-4.582502,4.113238,-208.156799,-39.440361,-10.973785
400000,0.074220,-4.790798,4.407725,-213.759857,-34.906010,-9.767678
404000,0.371101,-4.953603,4.714183,-219.485046,-29.593035,-9.431801
408000,0.624887,-5.264850,4.869806,-224.233139,-21.470896,-8.805846
412000,0.565032,-5.453991,4.774038,-228.324738,-14.066317,-8.805846
416000,0.395043,-5.729325,4.496311,-232.370544,-7.730438,-8.302030
420000,0.102951,-5.959168,4.132392,-237.088104,-3.501430,-7.798213
424000,0.038307,-6.217742,3.878607,-242.782761,-0.860209,-7.416533
428000,0.009577,-6.438008,3.632004,-249.103363,1.689409,-7.172258
432000,-0.203507,-6.754043,3.430891,-255.988876,2.513837,-6.882182
436000,-0.634463,-7.022193,3.184288,-261.973572,0.468035,-6.408899
440000,-0.907402,-7.345411,2.887407,-267.698761,-2.570133,-5.324930
444000,-1.096544,-7.649475,2.671929,-272.614807,-7.913644,-3.553938
448000,-1.098939,-7.946355,2.504335,-276.507935,-13.883110,-2.195159
452000,-1.003170,-8.133103,2.056619,-281.072815,-19.959446,-0.408900
456000,-0.902614,-8.394072,1.932121,-284.507935,-27.913645,0.507131
460000,-0.505177,-8.573636,1.917756,-288.385803,-34.661736,1.117818
464000,-0.270545,-8.820239,1.853112,-292.477386,-40.295322,1.697971
468000,0.090980,-9.030929,1.802834,-297.103363,-45.577766,1.545299
472000,0.392649,-9.193734,1.814805,-301.805634,-50.020515,1.148352
476000,0.639252,-9.521740,1.436521,-307.210236,-52.722805,0.400261
480000,0.806846,-9.698911,1.029507,-313.149170,-54.692272,-0.668442
484000,1.120486,-9.911995,0.725443,-319.881989,-55.852577,-2.149358
488000,1.405396,-10.235212,0.847547,-325.943054,-55.302959,-3.447068
492000,1.374272,-10.472239,0.835576,-330.889618,-54.753338,-4.500503
496000,1.295263,-10.872070,0.890643,-334.599548,-55.348759,-5.477602
500000,1.173159,-11.214440,0.869095,-337.423950,-56.081585,-5.981419
504000,1.005565,-11.647791,1.022324,-339.759857,-57.470898,-6.546304
508000,0.814029,-11.975797,1.271321,-341.194946,-58.753338,-7.187525
512000,0.708684,-12.243947,1.704672,-341.485046,-60.631203,-7.798213
516000,0.342371,-12.442666,2.126051,-341.149170,-63.501431,-8.256227
520000,0.189142,-12.710816,2.621651,-339.378174,-67.135017,-7.828747
524000,-0.043096,-12.871228,2.801216,-335.988861,-69.806770,-6.668441
528000,-0.347159,-13.165715,3.014300,-332.553741,-73.944176,-4.714243
532000,-0.521936,-13.445837,3.236961,-328.752197,-76.463257,-2.469968
536000,-0.543484,-13.591883,3.548207,-324.752197,-77.501427,-0.256228
540000,-0.517148,-13.697227,4.129998,-321.118622,-77.806770,2.415528
544000,-0.304064,-13.785813,4.996699,-315.683502,-77.257149,5.224689
548000,-0.167594,-13.773843,5.535394,-311.561371,-75.745705,7.377360
552000,-0.076614,-13.910312,6.296751,-306.950684,-71.058678,9.713238
556000,-0.124498,-13.912706,6.895301,-300.584259,-65.531960,12.461329
560000,0.047884,-13.996503,7.860164,-293.393433,-57.638836,14.629268
564000,0.067038,-14.065935,8.729259,-285.301819,-47.501431,16.614002
568000,-0.026336,-14.092271,9.461885,-274.736938,-35.547234,19.133085
572000,-0.605733,-14.176068,9.847352,-261.790375,-24.722805,22.843010
576000,-1.520318,-13.951014,10.299856,-247.698792,-18.463263,26.659803
580000,-1.084573,-14.202404,10.766725,-229.317108,-11.409828,31.285757
584000,-1.714248,-13.965379,10.201694,-209.881989,-2.081583,36.843010
588000,-1.623269,-13.855246,9.806650,-191.775131,-0.906011,41.209423
592000,-1.608904,-13.670892,9.504981,-175.301849,1.170325,45.178886
596000,-1.630451,-13.498509,9.057265,-160.813293,2.361165,48.476597
600000,-1.460463,-13.215993,8.429984,-146.859100,2.391699,51.835377
604000,-1.355118,-12.890382,7.486669,-135.378174,-0.157919,54.354462
608000,-1.247379,-12.574347,6.572083,-124.767479,-2.738072,56.812473
612000,-0.988805,-12.361263,5.760449,-115.622444,-2.188453,60.110184
616000,-0.785298,-12.033257,4.805163,-107.286568,-4.081583,62.507130
620000,-0.363919,-11.671733,3.919308,-101.668243,-3.104484,64.171257
624000,0.268151,-11.415554,3.081338,-98.340004,0.315363,65.194153
628000,0.610521,-11.216835,2.181118,-95.530846,3.155058,64.995682
632000,0.773327,-10.776301,1.565808,-93.851456,5.093989,63.972778
636000,1.142034,-10.512939,0.993594,-93.225502,5.277195,62.049118
640000,1.460463,-10.307038,0.660800,-92.370537,6.055821,59.301025
644000,1.544260,-10.170568,0.505177,-91.973587,6.468035,56.354462
648000,1.656788,-10.079589,0.495600,-90.492676,5.826814,52.827744
652000,1.644817,-9.926360,0.292093,-88.660614,1.429867,48.293392
656000,1.726219,-9.888053,0.531513,-85.072830,0.025287,44.262856
660000,1.489193,-9.938332,0.811634,-83.683517,-4.264789,39.774307
664000,1.460463,-9.979033,0.957681,-79.897255,-6.646469,35.804840
668000,1.180341,-10.055647,1.168370,-76.340004,-8.982347,32.049118
672000,0.878672,-10.093954,1.544260,-71.683517,-12.570133,28.659803
676000,0.766145,-10.237606,2.008735,-66.981224,-14.692270,26.339193
680000,0.636858,-10.345345,2.240973,-61.775116,-15.501431,24.400261
684000,0.380678,-10.292673,2.547431,-56.462139,-15.150286,22.476597
688000,0.351948,-10.402806,2.588132,-50.370537,-13.211354,21.438429
692000,0.081403,-10.362105,2.748544,-44.202599,-10.371660,20.843010
696000,-0.098162,-10.388441,2.707842,-37.866718,-7.669369,20.308659
700000,-0.205901,-10.426748,2.564190,-30.767483,-3.944179,20.293390
704000,-0.265756,-10.383653,2.229002,-24.538475,-0.997614,20.339193
708000,-0.507571,-10.383653,1.884237,-19.317102,1.200860,21.148354
712000,-0.641646,-10.278308,1.357512,-15.683515,3.017654,22.140718
716000,-0.493206,-10.122684,0.744597,-13.362905,5.063455,22.888811
720000,-0.229843,-9.945514,-0.090980,-12.675881,5.521471,22.491865
724000,0.102951,-9.775525,-0.742203,-12.935424,6.116890,21.194155
728000,0.323217,-9.631873,-1.400608,-14.492675,6.193226,19.774307
732000,0.533907,-9.516952,-2.106898,-17.042292,6.529104,17.606369
736000,0.756568,-9.399636,-2.746149,-20.843819,6.620707,14.629268
740000,0.926556,-9.318233,-2.887407,-24.798018,3.460402,11.270490
744000,0.663194,-9.442732,-2.791639,-28.126263,-0.127385,7.988047
748000,0.687136,-9.478644,-2.549825,-30.965958,-2.539598,5.010948
752000,0.660800,-9.615114,-2.243367,-33.668247,-5.470896,1.942245
756000,0.780510,-9.813833,-1.582567,-35.393436,-8.738072,-1.584472
760000,0.423774,-10.139444,-0.854730,-35.179695,-11.302958,-3.630274
764000,0.318429,-10.316615,-0.146046,-33.668247,-12.951813,-5.599739
768000,0.210690,-10.589554,0.239420,-30.675880,-12.982347,-6.744777
772000,-0.059855,-10.685322,0.512359,-27.561377,-12.844942,-7.630273
776000,-0.225055,-10.754754,0.811634,-23.622444,-12.539598,-7.584472
780000,-0.385466,-10.781090,1.154005,-18.721682,-11.028149,-7.279129
784000,-0.521936,-10.819398,1.371878,-13.973592,-9.409828,-6.469968
788000,-0.500388,-10.716447,1.479617,-8.660614,-7.012881,-5.385999
792000,-0.593762,-10.706870,1.273715,-3.851454,-3.867843,-3.492869
796000,-0.605733,-10.647015,1.144428,0.560760,-0.997614,-2.195159
800000,-0.641646,-10.522516,0.962469,4.301219,1.353531,-0.683709
804000,-0.684742,-10.448297,0.636858,7.644730,2.926050,0.690337
808000,-0.670376,-10.374076,0.387861,10.240149,4.208493,1.972780
812000,-0.629675,-10.297462,0.217872,12.591294,5.445135,3.224688
816000,-0.581791,-10.139444,-0.177171,14.133279,6.498569,3.820108
820000,-0.543484,-10.050858,-0.409408,14.835569,6.910783,4.354459
824000,-0.584185,-9.902418,-0.792481,15.644730,6.742845,4.812475
828000,-0.658405,-9.871294,-1.041478,16.026409,7.002387,5.392627
832000,-0.584185,-9.785102,-1.221043,15.415722,6.544371,5.774307
836000,-0.612916,-9.631873,-1.323994,15.003509,6.284829,5.514765
840000,-0.521936,-9.603143,-1.285686,14.240149,6.300097,5.270490
844000,-0.347159,-9.593566,-1.558625,14.224882,7.628340,5.484231
848000,-0.351948,-9.512163,-1.932121,13.049310,7.765746,4.552933
852000,-0.390255,-9.504981,-1.896208,10.698165,7.017653,3.530032
856000,-0.426168,-9.445126,-1.769315,8.896638,5.796279,2.446062
860000,-0.371101,-9.459491,-1.704672,7.690531,3.826814,1.178887
864000,-0.332794,-9.421184,-1.683124,6.850837,2.681776,-0.011953
868000,-0.368707,-9.421184,-1.625663,5.766867,2.116890,-1.050121
872000,-0.332794,-9.311050,-1.678335,5.034043,0.849715,-2.424167
876000,-0.373495,-9.344569,-1.522712,4.453890,0.147424,-3.172258
880000,-0.493206,-9.303867,-1.527501,3.644730,-0.844942,-4.347831
884000,-0.497994,-9.270349,-1.295263,3.354653,-3.028148,-4.760045
888000,-0.502782,-9.370906,-1.436521,2.805035,-3.562499,-5.401266
892000,-0.526724,-9.318233,-1.405396,1.736333,-3.623568,-6.240961
896000,-0.390255,-9.277532,-1.565808,-0.065194,-3.165553,-6.760045
900000,-0.533907,-9.275137,-1.362301,-1.072828,-3.257156,-7.416533
904000,-0.557849,-9.387665,-1.046266,-0.340003,-4.005247,-7.798213
908000,-0.557849,-9.442732,-0.799663,0.759233,-2.493797,-8.118823
912000,-0.639252,-9.466674,-0.818817,1.766867,-1.165553,-8.271495
916000,-0.644040,-9.370906,-0.921768,2.301218,-0.142652,-8.500503
920000,-0.632069,-9.502586,-0.883460,3.095111,0.254295,-8.393633
924000,-0.689530,-9.533711,-0.778116,3.659997,0.864982,-8.332563
928000,-0.797269,-9.528923,-0.785298,4.056943,0.422234,-8.195159
932000,-0.873884,-9.600749,-0.814029,4.469157,-0.051049,-8.210426
936000,-0.881066,-9.586384,-0.648829,4.957707,0.590173,-7.599739
940000,-0.821211,-9.588778,-0.854730,5.858470,1.093989,-6.943251
944000,-0.928950,-9.634268,-0.974440,6.438623,0.880249,-6.424167
948000,-0.912191,-9.572019,-0.945710,6.896638,0.254295,-5.920350
952000,-0.847547,-9.658210,-0.893037,6.942440,0.040554,-5.416533
956000,-0.864307,-9.631873,-0.988805,7.125646,0.406966,-4.805846
960000,-0.804452,-9.634268,-0.914585,7.049310,0.468035,-4.042487
964000,-0.778116,-9.598354,-1.036689,7.125646,0.422234,-3.538671
968000,-0.723049,-9.583989,-1.003170,6.957707,0.300096,-3.431800
972000,-0.696713,-9.497798,-1.206678,6.637096,0.406966,-3.263861
976000,-0.658405,-9.524135,-1.233014,6.362287,0.330631,-3.156991
980000,-0.605733,-9.493010,-1.328782,5.919539,0.315363,-2.973785
984000,-0.629675,-9.490616,-1.295263,4.942440,0.010020,-3.172258
988000,-0.612916,-9.500193,-1.357512,3.797401,-0.402194,-3.676075
992000,-0.450110,-9.425972,-1.352724,2.423356,-0.722805,-4.469968
996000,-0.452504,-9.404425,-1.280898,2.560760,-2.646469,-5.202793
1000000,-0.363919,-9.425972,-1.144428,3.614195,-3.272423,-5.599739
1004000,-0.514753,-9.421184,-1.173159,3.247783,-6.280056,-6.469968
1008000,-0.306458,-9.490616,-1.204283,3.430989,-4.341125,-7.187525
1012000,-0.430956,-9.481039,-1.151611,3.232516,-3.226621,-7.202793
1016000,-0.397437,-9.497798,-0.995988,2.988241,-3.135018,-8.011953
1020000,-0.526724,-9.526528,-1.027112,3.201982,-3.257156,-8.210426
1024000,-0.634463,-9.598354,-0.948104,3.217249,-4.081583,-8.240961
1028000,-0.591368,-9.639056,-0.823605,3.430989,-4.157919,-8.027221
1032000,-0.581791,-9.662998,-0.773327,4.209615,-3.028148,-7.691342
1036000,-0.569820,-9.658210,-0.823605,4.530226,-2.127385,-7.508136
1040000,-0.610521,-9.777920,-0.646434,4.576027,-1.608301,-6.882182
1044000,-0.615310,-9.672575,-0.651223,4.820302,-0.447995,-6.332563
1048000,-0.620098,-9.751583,-0.560243,5.430989,0.254295,-6.103556
1052000,-0.572214,-9.797073,-0.766145,5.751600,0.315363,-5.355464
1056000,-0.569820,-9.763555,-0.646434,5.904272,0.849715,-4.683709
1060000,-0.612916,-9.737218,-0.617704,6.194348,0.773379,-4.424167
1064000,-0.591368,-9.744401,-0.715866,6.209615,1.399333,-3.447068
1068000,-0.500388,-9.691729,-0.938527,6.224882,1.368798,-2.744777
1072000,-0.488417,-9.761160,-1.072602,5.721066,1.277195,-2.882182
1076000,-0.414197,-9.703699,-1.086968,5.430989,1.368798,-2.515770
1080000,-0.332794,-9.708488,-0.988805,4.850837,1.811547,-2.760045
1084000,-0.447716,-9.734824,-1.103727,4.606562,2.132157,-2.393632
1088000,-0.411803,-9.653421,-1.103727,4.316485,2.162692,-2.347831
1092000,-0.378284,-9.591172,-1.120486,3.736333,2.269562,-2.378365
1096000,-0.349553,-9.600749,-1.084573,3.690531,2.239028,-2.393632
1100000,-0.409408,-9.643845,-0.967257,3.430989,1.811547,-3.095922
1104000,-0.349553,-9.679757,-0.993594,3.705798,1.261928,-3.447068
1108000,-0.325611,-9.756371,-0.924162,3.782134,0.880249,-3.477602
1112000,-0.375890,-9.634268,-0.921768,4.148547,1.002386,-4.073022
1116000,-0.416591,-9.701305,-0.806846,4.255417,0.376432,-4.103556
1120000,-0.418985,-9.679757,-0.821211,4.637096,0.391699,-4.317297
1124000,-0.421380,-9.703699,-0.794875,4.911905,0.468035,-4.088289
1128000,-0.466869,-9.758766,-1.019930,5.339386,-0.478530,-4.210426
1132000,-0.579397,-9.773131,-1.051055,5.614195,-1.913644,-4.302029
1136000,-0.562637,-9.756371,-1.127669,5.522593,-2.157919,-3.538671
1140000,-0.562637,-9.746795,-1.041478,4.896638,-2.402194,-3.492869
1144000,-0.557849,-9.763555,-1.063026,4.423356,-2.188453,-3.218060
1148000,-0.560243,-9.725247,-1.012747,3.827936,-1.806774,-2.668442
1152000,-0.555455,-9.708488,-0.974440,3.537859,-1.730438,-2.347831
1156000,-0.567426,-9.677363,-0.869095,3.522592,-1.470896,-1.645541
1160000,-0.541090,-9.607931,-0.845153,3.369921,-1.394560,-1.172258
1164000,-0.562637,-9.636662,-0.873884,3.430989,-2.112118,-0.805846
1168000,-0.313640,-9.619903,-1.091756,2.972974,-1.089217,-0.500503
1172000,-0.169988,-9.591172,-1.295263,2.072211,1.032921,-0.683709
1176000,-0.174777,-9.521740,-1.479617,0.270684,1.918417,-1.111190
1180000,-0.222661,-9.504981,-1.391031,-1.072828,2.513837,-1.477602
1184000,-0.203507,-9.509769,-1.355118,-2.584278,2.025287,-1.966151
1188000,-0.217872,-9.624691,-1.261744,-3.500308,2.071089,-2.485235
1192000,-0.339977,-9.667787,-1.053449,-3.423972,1.414600,-2.729510
1196000,-0.222661,-9.674969,-0.885855,-3.317102,1.261928,-2.866915
1200000,-0.356736,-9.722853,-0.814029,-3.149163,1.781012,-3.218060
1204000,-0.531513,-9.830592,-0.751779,-2.859087,1.399333,-3.385999
1208000,-0.526724,-9.866506,-0.751779,-2.309469,0.315363,-2.973785
1212000,-0.555455,-9.931149,-0.545878,-1.820919,-0.341125,-2.805846
1216000,-0.447716,-9.890448,-0.574608,-1.485041,-0.325858,-2.836380
1220000,-0.505177,-9.847352,-0.550666,-1.042293,0.071089,-2.073022
1224000,-0.375890,-9.883265,-0.524330,-0.431606,0.300096,-1.874548
1228000,-0.335188,-9.900024,-0.622492,0.438623,0.819180,-1.523403
1232000,-0.335188,-9.835381,-0.660800,0.713432,1.353531,-1.630274
1236000,-0.179565,-9.852140,-0.634463,1.156180,1.964218,-1.737144
1240000,-0.146046,-9.866506,-0.782904,1.324119,1.857348,-2.164625
1244000,-0.229843,-9.852140,-0.840365,1.446256,1.506203,-2.286762
1248000,-0.272939,-9.856929,-0.684742,1.721066,1.139791,-2.561571
1252000,-0.256180,-9.871294,-0.555455,2.240149,0.559638,-2.500503
1256000,-0.289698,-9.885659,-0.632069,2.759233,-0.035782,-2.729510
1260000,-0.349553,-9.945514,-0.732626,3.339386,-0.707537,-2.790579
1264000,-0.356736,-9.926360,-0.861913,3.324119,-0.890743,-2.408900
1268000,-0.383072,-9.983821,-0.986411,3.003508,-0.860209,-2.057755
1272000,-0.478840,-9.871294,-0.885855,2.621829,-1.180820,-1.752411
1276000,-0.450110,-9.962274,-0.842759,2.469157,-1.501431,-1.370732
1280000,-0.488417,-9.943120,-0.653617,2.072211,-1.165553,-0.897449
1284000,-0.502782,-9.926360,-0.644040,1.980608,-0.738072,-0.317297
1288000,-0.397437,-9.873688,-0.787692,2.072211,0.040554,0.094917
1292000,-0.318429,-9.861717,-0.763750,2.179081,0.605440,0.766673
1296000,-0.114922,-9.797073,-0.835576,1.843203,2.254295,0.644536
1300000,-0.210690,-9.708488,-1.007959,1.171447,3.429867,0.140719
1304000,-0.222661,-9.593566,-1.237802,0.835569,3.109257,-0.057755
1308000,-0.229843,-9.639056,-1.367089,0.408088,2.376432,-0.668442
1312000,-0.160412,-9.540894,-1.089362,-0.309469,1.246661,-1.340197
1316000,-0.088585,-9.581595,-0.962469,-0.355270,0.391699,-1.813480
1320000,-0.093374,-9.648633,-0.900220,-0.217866,-0.264789,-2.576838
1324000,-0.083797,-9.574412,-0.864307,-0.248400,-1.257156,-3.508136
1328000,-0.155623,-9.686940,-0.703895,0.179081,-2.066316,-4.286762
1332000,-0.234632,-9.768343,-0.689530,0.576027,-2.631201,-5.004319
1336000,-0.325611,-9.744401,-0.442927,1.079844,-3.119751,-4.927983
1340000,-0.399832,-9.765948,-0.409408,1.461524,-3.180820,-4.989052
1344000,-0.392649,-9.806650,-0.373495,2.118012,-2.585400,-5.080655
1348000,-0.354342,-9.818622,-0.308852,2.759233,-2.005247,-4.668441
1352000,-0.229843,-9.892841,-0.237026,3.827936,-1.272423,-4.989052
1356000,-0.313640,-9.835381,-0.395043,4.713432,-0.463263,-4.668441
1360000,-0.272939,-9.809045,-0.557849,5.308852,1.048188,-4.622640
1364000,-0.294487,-9.801862,-0.675165,5.690531,2.284829,-4.332564
1368000,-0.402226,-9.780313,-0.897826,5.247783,2.376432,-4.271495
1372000,-0.383072,-9.804255,-0.744597,5.110379,2.223760,-4.179892
1376000,-0.452504,-9.765948,-0.823605,4.927173,1.582539,-4.073022
1380000,-0.474052,-9.713276,-0.799663,5.095111,0.834447,-3.874548
1384000,-0.454898,-9.730036,-0.864307,4.850837,0.239028,-3.645541
1388000,-0.488417,-9.813833,-0.814029,4.682898,0.040554,-3.615006
1392000,-0.512359,-9.847352,-0.730232,4.484425,-0.249522,-3.294396
1396000,-0.557849,-9.821015,-0.780510,4.118012,-0.310591,-2.821113
1400000,-0.521936,-9.789890,-0.711078,4.087478,-0.554866,-2.454701
1404000,-0.562637,-9.816227,-0.751779,4.087478,-0.188453,-2.149358
1408000,-0.569820,-9.799467,-0.665588,4.423356,-0.218988,-1.553938
1412000,-0.459687,-9.689334,-0.770933,4.774501,0.391699,-1.126457
1416000,-0.301669,-9.624691,-0.833182,5.079844,1.124524,-1.156991
1420000,-0.134075,-9.610326,-1.084573,5.079844,1.857348,-1.416533
1424000,-0.095768,-9.543288,-1.350330,4.591295,2.788646,-1.950884
1428000,-0.177171,-9.514558,-1.654393,3.125646,3.078722,-2.302029
1432000,-0.141258,-9.404425,-1.821988,1.385188,2.437501,-2.729510
1436000,-0.148441,-9.406818,-1.702277,-0.416339,1.200860,-3.324930
1440000,-0.227449,-9.481039,-1.522712,-2.049927,-0.402194,-3.874548
1444000,-0.227449,-9.512163,-1.407791,-3.103362,-1.684637,-4.073022
1448000,-0.268151,-9.610326,-1.156399,-4.004126,-2.906011,-4.454701
1452000,-0.380678,-9.634268,-0.828394,-3.943056,-3.837308,-4.531037
1456000,-0.447716,-9.770737,-0.531513,-3.683514,-4.035782,-4.240961
1460000,-0.481235,-9.809045,-0.304064,-2.935423,-4.142652,-3.981419
1464000,-0.474052,-9.916783,-0.153229,-1.698782,-3.959446,-3.248594
1468000,-0.500388,-9.909601,-0.169988,-0.446873,-3.180820,-2.622640
1472000,-0.457293,-9.902418,-0.208296,0.652363,-2.020514,-1.706609
1476000,-0.474052,-9.866506,-0.203507,1.278317,-0.554866,-1.080655
1480000,-0.399832,-9.813833,-0.203507,1.965340,0.849715,-0.561571
1484000,-0.433351,-9.825804,-0.378284,2.713432,1.933684,0.033849
1488000,-0.438139,-9.794679,-0.466869,3.156180,1.964218,0.247589
1492000,-0.347159,-9.768343,-0.495600,3.247783,2.269562,0.552933
1496000,-0.292093,-9.761160,-0.600945,3.217249,2.132157,0.537665
1500000,-0.316035,-9.737218,-0.603339,3.598928,1.216127,0.461329
1504000,-0.246603,-9.734824,-0.596156,3.598928,1.063455,0.171253
1508000,-0.213084,-9.713276,-0.780510,3.812669,0.468035,-0.118823
1512000,-0.208296,-9.658210,-0.756568,3.873737,-0.035782,-0.393632
1516000,-0.258574,-9.660604,-0.809240,4.133279,-0.814408,-0.897449
1520000,-0.189142,-9.696517,-0.804452,4.118012,-1.440362,-1.615006
1524000,-0.263362,-9.696517,-0.751779,4.499691,-1.974713,-2.134090
1528000,-0.220267,-9.758766,-0.744597,4.835569,-2.112118,-2.408900
1532000,-0.311246,-9.737218,-0.830788,4.759233,-1.486163,-2.592106
1536000,-0.459687,-9.749189,-0.890643,4.835569,-1.165553,-2.592106
1540000,-0.428562,-9.804255,-0.974440,4.316485,-0.707537,-2.485235
1544000,-0.541090,-9.763555,-1.017536,4.392821,-0.402194,-2.347831
1548000,-0.531513,-9.763555,-1.012747,3.965340,-0.631201,-1.828747
1552000,-0.495600,-9.758766,-1.005565,3.614195,-0.127385,-1.492869
1556000,-0.438139,-9.742006,-1.041478,3.140913,0.330631,-1.370732
1560000,-0.433351,-9.701305,-0.979228,2.591295,0.681776,-1.126457
1564000,-0.438139,-9.727641,-1.017536,2.056943,0.864982,-1.126457
1568000,-0.447716,-9.682152,-0.881066,1.675264,0.391699,-0.469968
1572000,-0.407014,-9.689334,-0.950498,1.354653,0.452768,-0.561571
1576000,-0.416591,-9.631873,-0.950498,0.866104,0.040554,-0.088289
1580000,-0.287304,-9.617508,-0.854730,0.621829,0.147424,-0.057755
1584000,-0.275333,-9.572019,-0.871489,0.606562,0.376432,0.079650
1588000,-0.272939,-9.562442,-0.797269,0.545493,0.345898,-0.042487
1592000,-0.275333,-9.528923,-0.823605,0.331753,0.223760,0.003314
1596000,-0.292093,-9.538500,-0.763750,0.331753,0.071089,-0.225693
1600000,-0.280122,-9.588778,-0.701501,0.255417,0.040554,0.079650
1604000,-0.270545,-9.481039,-0.730232,0.484424,-0.218988,-0.088289
1608000,-0.301669,-9.574412,-0.782904,0.560760,-0.264789,0.262856
1612000,-0.378284,-9.521740,-0.737414,0.347020,-0.432728,0.598734
1616000,-0.395043,-9.600749,-0.732626,0.194348,-0.493797,0.598734
1620000,-0.344765,-9.607931,-0.766145,0.087478,-0.524331,1.148352
1624000,-0.418985,-9.593566,-0.711078,-0.019392,-1.287690,1.346826
1628000,-0.395043,-9.643845,-0.663194,0.118012,-1.623568,1.530032
1632000,-0.318429,-9.598354,-0.574608,0.408088,-0.951812,1.942245
1636000,-0.308852,-9.655815,-0.617704,0.835569,-0.768606,1.972780
1640000,-0.244209,-9.550470,-0.701501,1.064577,-0.341125,2.003314
1644000,-0.292093,-9.627085,-0.744597,1.400455,-0.127385,1.988047
1648000,-0.174777,-9.603143,-0.790087,1.263050,-0.112117,1.957513
1652000,-0.148441,-9.651027,-0.768539,0.988241,-0.127385,1.988047
1656000,-0.174777,-9.569624,-0.758962,0.896638,-0.218988,1.942245
1660000,-0.016759,-9.593566,-0.713472,1.079844,-0.142652,1.652169
1664000,-0.028730,-9.631873,-0.648829,1.247783,0.071089,1.591100
1668000,0.031125,-9.588778,-0.732626,1.186714,0.712310,1.133085
1672000,0.038307,-9.648633,-0.660800,1.293585,0.681776,0.552933
1676000,0.023942,-9.615114,-0.639252,1.049310,0.468035,0.278123
1680000,0.009577,-9.686940,-0.620098,1.034043,0.406966,-0.317297
1684000,-0.028730,-9.648633,-0.541090,1.079844,0.376432,-0.790579
1688000,-0.059855,-9.746795,-0.553061,1.522592,-0.203721,-1.126457
1692000,-0.074220,-9.703699,-0.502782,2.255417,-0.325858,-1.111190
1696000,-0.119710,-9.751583,-0.670376,2.087478,0.010020,-1.233327
1700000,-0.172383,-9.718064,-0.677559,2.102745,0.391699,-1.233327
1704000,-0.304064,-9.746795,-0.754174,1.766867,1.170325,-1.156991
1708000,-0.397437,-9.792285,-0.814029,1.476791,1.536737,-1.401266
1712000,-0.452504,-9.744401,-0.861913,1.430989,0.773379,-1.324930
1716000,-0.450110,-9.725247,-0.814029,0.942440,0.819180,-1.004319
1720000,-0.438139,-9.739613,-0.778116,0.988241,1.017653,-1.004319
1724000,-0.423774,-9.737218,-0.701501,1.385188,0.788646,-0.698976
1728000,-0.430956,-9.706094,-0.744597,1.614195,0.284829,-0.805846
1732000,-0.507571,-9.751583,-0.905008,1.934806,-0.157919,-0.683709
1736000,-0.509965,-9.737218,-0.926556,1.919539,-1.409827,-0.836380
1740000,-0.332794,-9.751583,-0.881066,1.614195,-2.051049,-0.698976
1744000,-0.392649,-9.727641,-0.912191,1.354653,-2.325858,-0.805846
1748000,-0.263362,-9.739613,-0.926556,1.110379,-2.386927,-0.332564
1752000,-0.260968,-9.777920,-1.086968,0.362287,-2.554866,-0.592106
1756000,-0.287304,-9.710882,-1.031901,-0.324736,-2.707537,-0.454701
1760000,-0.280122,-9.737218,-0.981623,-0.904888,-2.783873,-0.637907
1764000,-0.253785,-9.703699,-0.806846,-1.866720,-2.692270,-0.744777
1768000,-0.284910,-9.789890,-0.818817,-2.172064,-2.615934,-0.500503
1772000,-0.258574,-9.756371,-0.562637,-2.202598,-2.035782,-0.637907
1776000,-0.263362,-9.816227,-0.366313,-1.943056,-1.867843,-0.485235
1780000,-0.251391,-9.871294,-0.318429,-1.317102,-1.211354,-0.485235
1784000,-0.229843,-9.811439,-0.153229,-0.630080,-0.539598,-0.622640
1788000,-0.304064,-9.861717,-0.126893,0.713432,-0.417461,-0.515770
1792000,-0.296881,-9.830592,-0.155623,1.797401,0.010020,-0.393632
1796000,-0.239420,-9.809045,-0.280122,2.637096,0.086356,-0.500503
1800000,-0.210690,-9.765948,-0.483629,3.476791,0.483302,-0.286762
1804000,-0.143652,-9.720459,-0.579397,3.293585,0.605440,-0.653174
1808000,-0.110133,-9.715671,-0.620098,3.308852,0.574905,-0.989052
1812000,-0.038307,-9.653421,-0.751779,2.972974,0.147424,-1.431800
1816000,-0.064643,-9.694122,-0.854730,2.820302,-0.692270,-1.615006
1820000,0.007183,-9.660604,-0.940921,2.316485,-0.738072,-2.027220
1824000,0.033519,-9.674969,-1.003170,1.934806,-0.829675,-2.332564
1828000,-0.040701,-9.689334,-1.055843,0.743966,-0.738072,-2.698976
1832000,-0.119710,-9.708488,-0.950498,-0.278934,-1.104484,-2.775312
1836000,-0.237026,-9.799467,-0.768539,-0.828552,-1.531965,-2.866915
1840000,-0.244209,-9.789890,-0.739808,-1.088094,-1.470896,-2.546304
1844000,-0.347159,-9.823410,-0.567426,-0.965957,-1.730438,-2.378365
1848000,-0.316035,-9.864111,-0.519542,-0.675881,-1.699904,-2.042487
1852000,-0.359130,-9.938332,-0.543484,-0.462140,-1.165553,-1.584472
1856000,-0.282516,-9.983821,-0.572214,-0.141530,0.315363,-0.851648
1860000,-0.361524,-9.935937,-0.512359,-0.385804,0.635974,-0.714243
1864000,-0.450110,-9.916783,-0.471658,0.148546,0.559638,-0.500503
1868000,-0.378284,-9.914390,-0.454898,0.728699,1.200860,-0.424167
1872000,-0.332794,-9.878476,-0.368707,1.293585,1.216127,-0.011953
1876000,-0.363919,-9.794679,-0.359130,2.118012,2.239028,0.079650
1880000,-0.330400,-9.758766,-0.620098,2.698165,2.269562,0.415528
1884000,-0.241814,-9.658210,-0.545878,3.125646,2.132157,0.644536
1888000,-0.270545,-9.691729,-0.658405,3.659997,2.010020,0.232322
1892000,-0.136469,-9.591172,-0.902614,3.782134,1.597806,0.232322
1896000,-0.021548,-9.560047,-0.979228,3.568394,1.597806,-0.332564
1900000,-0.076614,-9.459491,-0.869095,3.110379,1.093989,-0.668442
1904000,-0.023942,-9.478644,-0.912191,2.743967,0.590173,-0.912716
1908000,-0.095768,-9.440337,-1.017536,2.453890,-0.005247,-1.584472
1912000,-0.076614,-9.469068,-0.979228,2.102745,-0.417461,-1.874548
1916000,-0.136469,-9.406818,-0.964863,1.492058,-0.539598,-2.088289
1920000,-0.232238,-9.423578,-1.027112,0.591295,-1.089217,-2.454701
1924000,-0.205901,-9.466674,-0.799663,-0.202598,-0.936545,-2.424167
1928000,-0.210690,-9.524135,-0.833182,-0.584278,-1.211354,-2.302029
1932000,-0.277727,-9.540894,-0.720655,-0.767484,-1.394560,-2.454701
1936000,-0.251391,-9.694122,-0.591368,-0.950690,-0.890743,-2.424167
1940000,-0.294487,-9.835381,-0.442927,-0.355270,-0.615934,-2.317297
1944000,-0.339977,-9.842564,-0.399832,0.072211,-0.081583,-2.149358
1948000,-0.325611,-9.919178,-0.392649,0.927172,0.513837,-2.042487
1952000,-0.323217,-9.914390,-0.519542,1.659997,0.574905,-2.164625
1956000,-0.215478,-9.897630,-0.569820,2.255417,0.376432,-2.256228
1960000,-0.253785,-9.847352,-0.617704,2.774501,0.971852,-2.286762
1964000,-0.299275,-9.876082,-0.665588,3.186715,1.613073,-2.286762
1968000,-0.306458,-9.871294,-0.895431,2.988241,2.055821,-2.378365
1972000,-0.320823,-9.753978,-0.885855,2.850837,1.536737,-2.408900
1976000,-0.445322,-9.811439,-0.948104,2.881371,0.391699,-2.286762
1980000,-0.414197,-9.761160,-0.972046,2.637096,-0.570133,-2.210426
1984000,-0.481235,-9.677363,-0.984017,2.163814,-0.906011,-1.981419
1988000,-0.440533,-9.662998,-1.072602,1.201982,-1.241889,-1.630274
1992000,-0.464475,-9.720459,-1.110910,0.514959,-1.348759,-1.324930
1996000,-0.390255,-9.612720,-1.034295,-0.233133,-1.318224,-0.866915
