time_us,ax,ay,az,gx,gy,gz
0,-0.234632,-0.914585,9.124303,-2.446873,4.223761,1.102551
4000,-0.248997,-0.912191,9.083601,-1.164430,3.582539,0.659803
8000,-0.332794,-0.902614,9.126697,0.056943,3.307730,0.278123
12000,-0.296881,-0.907402,9.102755,1.049310,3.093989,0.049116
16000,-0.399832,-0.869095,8.875306,1.858470,2.055821,-0.073022
20000,-0.385466,-0.861913,8.741230,2.041676,0.864982,-0.302029
24000,-0.366313,-0.806846,8.554482,1.950073,-0.157919,-0.469968
28000,-0.215478,-0.749385,8.437167,1.369921,0.055821,-0.882182
32000,-0.246603,-0.744597,8.444349,0.957707,-0.112117,-1.202793
36000,-0.344765,-0.667982,8.477868,0.347020,-0.463263,-1.584472
40000,-0.260968,-0.644040,8.576031,0.179081,-0.417461,-1.553938
44000,-0.244209,-0.675165,8.595184,-0.126262,0.590173,-1.431800
48000,-0.299275,-0.682347,8.537724,-0.355270,1.475669,-1.584472
52000,-0.368707,-0.653617,8.461109,-0.828552,1.765745,-1.630274
56000,-0.378284,-0.639252,8.384495,-1.072828,1.506203,-1.706609
60000,-0.356736,-0.696713,8.319851,-1.973591,1.353531,-1.477602
64000,-0.478840,-0.694318,8.377312,-2.981224,1.002386,-1.523403
68000,-0.407014,-0.656011,8.422802,-3.820919,0.452768,-1.462335
72000,-0.402226,-0.663194,8.408437,-4.630079,-0.020514,-1.416533
76000,-0.371101,-0.696713,8.439561,-5.836186,-0.310591,-1.324930
80000,-0.397437,-0.689530,8.355764,-7.164431,-0.371659,-1.172258
84000,-0.385466,-0.751779,8.456321,-8.187331,-0.493797,-1.111190
88000,-0.387861,-0.823605,8.511387,-8.843820,-0.310591,-1.065388
92000,-0.411803,-0.900220,8.686164,-9.408706,0.422234,-0.683709
96000,-0.325611,-0.928950,8.774749,-9.469774,1.078722,-0.317297
100000,-0.395043,-0.924162,8.949526,-9.423973,2.025287,-0.042487
104000,-0.457293,-1.043872,8.949526,-9.118629,3.048188,0.125452
108000,-0.438139,-1.074997,9.227253,-8.675881,3.597806,0.491864
112000,-0.359130,-1.206678,9.334992,-7.469774,4.437501,0.965146
116000,-0.407014,-1.118092,9.380483,-6.202599,4.559639,0.980413
120000,-0.416591,-1.151611,9.296685,-4.752217,4.971852,1.178887
124000,-0.423774,-1.094150,9.277532,-3.591912,5.139791,1.423162
128000,-0.366313,-1.058237,9.370906,-2.859087,5.032921,1.499497
132000,-0.323217,-0.984017,9.320627,-1.820919,5.124524,1.545299
136000,-0.354342,-0.998382,9.121908,-0.691148,5.399333,1.697971
140000,-0.337582,-0.926556,8.961497,0.087478,5.735211,1.682703
144000,-0.292093,-0.936133,8.698134,0.026409,5.811547,1.468963
148000,-0.289698,-0.881066,8.738836,-0.385804,5.750478,1.499497
152000,-0.347159,-0.754174,8.599973,-1.088094,5.124524,1.636902
156000,-0.277727,-0.758962,8.465898,-1.866720,4.849715,1.575833
160000,-0.213084,-0.766145,8.446744,-2.645346,4.834447,1.362093
164000,-0.150835,-0.725443,8.429984,-3.469774,5.521471,1.255223
168000,-0.102951,-0.711078,8.372523,-4.416339,6.177959,1.026215
172000,-0.119710,-0.766145,8.334216,-5.515575,6.544371,0.781940
176000,-0.117316,-0.708684,8.319851,-6.706415,6.803913,0.461329
180000,-0.217872,-0.780510,8.343793,-7.729317,6.864982,0.201787
184000,-0.222661,-0.799663,8.401254,-8.431606,6.742845,0.125452
188000,-0.208296,-0.845153,8.511387,-8.660614,6.803913,-0.027220
192000,-0.316035,-0.885855,8.501810,-8.340003,6.620707,-0.408900
196000,-0.354342,-0.940921,8.348581,-8.385805,6.177959,-0.622640
200000,-0.450110,-0.936133,8.355764,-8.340003,4.697043,-0.866915
204000,-0.471658,-0.998382,8.331821,-8.660614,3.231394,-0.882182
208000,-0.519542,-0.988805,8.451532,-8.340003,1.582539,-0.531037
212000,-0.586579,-1.094150,8.595184,-8.416339,0.513837,-0.775312
216000,-0.502782,-1.079785,8.525752,-8.294202,-0.280056,-0.607373
220000,-0.526724,-1.079785,8.458714,-8.202599,-0.875476,-0.240961
224000,-0.543484,-1.007959,8.372523,-8.172065,-1.089217,-0.195159
228000,-0.634463,-1.055843,8.281544,-8.584278,-1.699904,0.079650
232000,-0.567426,-1.024718,8.329428,-9.668247,-1.684637,0.507131
236000,-0.598550,-1.022324,8.451532,-10.278934,-1.226621,0.904078
240000,-0.562637,-0.938527,8.520964,-10.477407,0.284829,1.484230
244000,-0.524330,-0.885855,8.391677,-10.706415,2.055821,1.591100
248000,-0.541090,-0.967257,8.367735,-11.347637,3.613073,2.140719
252000,-0.502782,-0.938527,8.250419,-12.080461,4.834447,2.201787
256000,-0.430956,-0.921768,8.276755,-12.920156,5.704677,2.018581
260000,-0.428562,-0.885855,8.257602,-13.607179,5.872615,1.697971
264000,-0.409408,-0.895431,8.228871,-13.714049,5.368799,1.178887
268000,-0.433351,-0.962469,8.259995,-13.744584,4.605440,0.720871
272000,-0.452504,-0.962469,8.264784,-14.217866,3.597806,0.369726
276000,-0.562637,-0.948104,8.216900,-14.706416,2.162692,-0.011953
280000,-0.598550,-1.046266,8.180987,-15.103362,-0.066316,-0.424167
284000,-0.524330,-1.051055,8.159439,-15.805652,-2.524331,-0.790579
288000,-0.600945,-1.163582,8.195353,-16.385803,-4.677003,-1.584472
292000,-0.605733,-1.156399,8.154651,-16.904888,-6.417461,-1.447067
296000,-0.682347,-1.168370,8.147469,-17.775116,-8.112118,-1.752411
300000,-0.663194,-1.216254,8.281544,-18.614811,-8.875477,-1.889816
304000,-0.706290,-1.271321,8.336611,-19.042292,-9.791507,-2.011953
308000,-0.706290,-1.285686,8.370130,-19.362904,-9.898377,-1.798213
312000,-0.802058,-1.288081,8.245630,-20.034658,-9.791507,-1.416533
316000,-0.873884,-1.340753,8.173804,-20.920155,-9.837309,-1.233327
320000,-0.960075,-1.443704,8.180987,-21.881987,-10.203721,-0.683709
324000,-0.847547,-1.443704,8.571242,-22.340002,-9.791507,0.232322
328000,-0.687136,-1.484405,8.734048,-22.385803,-7.730438,0.736139
332000,-0.711078,-1.489193,8.568848,-22.309467,-5.806774,1.453696
336000,-0.679953,-1.522712,8.525752,-22.355270,-4.539598,2.110184
340000,-0.708684,-1.527501,8.429984,-23.057560,-3.715171,2.430795
344000,-0.672771,-1.491588,8.367735,-24.401072,-2.112118,3.087284
348000,-0.723049,-1.510741,8.214506,-25.668247,-0.631201,3.743773
352000,-0.809240,-1.525106,7.970297,-27.210232,0.559638,4.644536
356000,-0.866701,-1.417367,8.013393,-28.691147,1.093989,5.713238
360000,-0.763750,-1.395820,8.159439,-29.927788,1.613073,6.476597
364000,-0.600945,-1.357512,8.164227,-30.614811,3.063455,7.087284
368000,-0.677559,-1.362301,8.101978,-31.118629,3.292463,7.224689
372000,-0.565032,-1.347936,7.989451,-31.378170,3.292463,7.117818
376000,-0.588974,-1.304840,7.905654,-32.004124,2.712310,7.026215
380000,-0.509965,-1.280898,7.757214,-32.187332,1.811547,6.415528
384000,-0.579397,-1.285686,7.754819,-33.256031,0.101623,5.804841
388000,-0.665588,-1.302446,7.570466,-34.324734,-2.631201,5.438429
392000,-0.490811,-1.266533,7.524976,-36.004124,-5.287690,4.797207
396000,-0.478840,-1.240196,7.453150,-37.897255,-7.531965,4.155986
400000,-0.342371,-1.235408,7.563283,-39.546108,-9.593034,3.026215
404000,-0.407014,-1.398214,7.541735,-41.317101,-11.776240,2.094917
408000,-0.466869,-1.395820,7.544129,-43.317101,-14.249522,1.591100
412000,-0.426168,-1.417367,7.635109,-45.973591,-16.249521,1.285757
416000,-0.337582,-1.532289,7.867347,-48.324734,-15.944179,1.041482
420000,-0.335188,-1.589750,7.812280,-50.172062,-16.112118,0.980413
424000,-0.256180,-1.618480,7.678205,-51.988857,-16.967079,0.827742
428000,-0.162806,-1.608904,7.723695,-54.401070,-16.722805,0.491864
432000,-0.114922,-1.695095,7.448361,-57.301834,-15.715171,0.217055
436000,0.035913,-1.683124,7.455544,-60.599541,-13.852576,-0.011953
440000,0.045490,-1.781286,7.457938,-64.049927,-12.142653,-0.332564
444000,0.088585,-1.800440,7.666234,-66.401070,-11.196087,-0.729510
448000,0.043096,-1.826776,7.563283,-68.981224,-12.371660,-1.034854
452000,0.040701,-1.898602,7.860164,-71.530846,-10.585401,-1.523403
456000,0.026336,-1.956063,7.702147,-73.500305,-9.333492,-1.355464
460000,-0.062249,-1.960851,7.374141,-76.401070,-8.249522,-1.355464
464000,-0.201113,-1.972822,7.134721,-78.965958,-7.257155,-1.294396
468000,-0.210690,-2.056619,6.976704,-82.889618,-6.738071,-1.095922
472000,-0.232238,-2.092532,6.859388,-86.660614,-6.753339,-1.111190
476000,-0.232238,-2.190695,6.600814,-90.538475,-6.906011,-1.156991
480000,-0.237026,-2.193089,6.378153,-94.950691,-6.692270,-1.202793
484000,-0.184354,-2.200271,6.157887,-99.469772,-6.646469,-1.294396
488000,-0.100556,-2.276886,5.872977,-104.935425,-6.997613,-1.477602
492000,-0.167594,-2.315193,5.607220,-110.416336,-8.478530,-1.615006
496000,-0.002394,-2.382231,5.355829,-116.843819,-10.280057,-2.042487
500000,0.057461,-2.523489,5.140351,-123.301834,-12.218988,-2.408900
504000,0.189142,-2.652776,4.845864,-129.866730,-14.264790,-2.805846
508000,0.469264,-2.638410,4.888960,-136.553757,-18.081583,-4.317297
512000,0.610521,-2.841918,4.716578,-142.767487,-21.241888,-5.645541
516000,0.617704,-2.844312,4.175488,-150.599548,-31.516699,-7.966151
520000,0.905008,-2.980781,4.163517,-157.500320,-30.173187,-9.370732
524000,0.859518,-3.088520,3.948039,-165.347641,-31.012880,-11.385999
528000,0.991199,-3.402161,3.778050,-172.538483,-31.608301,-13.004320
532000,1.101333,-3.495534,3.366248,-180.950699,-33.226624,-14.531037
536000,1.046266,-3.691859,3.064578,-190.156799,-35.623569,-16.775311
540000,0.945710,-3.931279,2.703054,-199.729324,-39.623569,-18.760044
544000,0.837971,-4.158728,2.379837,-209.805664,-42.539600,-20.240959
548000,1.034295,-4.489128,2.257732,-220.309479,-43.348759,-21.080654
552000,0.931344,-4.788404,2.185906,-230.782761,-45.180820,-22.363098
556000,0.943315,-5.056554,1.759738,-239.836197,-45.318226,-22.393631
560000,0.718261,-5.348647,1.312023,-249.393448,-49.318226,-22.683708
564000,0.509965,-5.774815,1.091756,-259.210236,-52.661736,-22.805845
568000,0.395043,-6.160281,0.718261,-268.034637,-52.722805,-21.859282
572000,0.466869,-6.497863,0.265756,-277.103363,-54.280056,-20.927982
576000,0.385466,-6.809110,0.193930,-287.103363,-54.692272,-19.966150
580000,0.713472,-7.366959,0.213084,-296.782745,-54.844944,-19.050119
584000,0.727837,-7.694964,0.083797,-306.920135,-55.852577,-18.408899
588000,0.792481,-8.214506,0.083797,-315.103363,-57.822041,-17.767677
592000,0.919373,-8.580819,0.282516,-323.927795,-58.554867,-17.263861
596000,0.610521,-9.028535,0.196325,-332.065186,-59.104485,-15.447068
600000,0.562637,-9.600749,0.292093,-339.149170,-59.302959,-13.309663
604000,0.464475,-10.055647,0.679953,-345.820923,-60.447994,-11.553938
608000,0.641646,-10.426748,1.237802,-351.485046,-59.501431,-9.477602
612000,0.711078,-10.843340,1.556231,-355.790375,-58.982346,-8.011953
616000,0.773327,-11.097125,2.114080,-358.950684,-57.470898,-6.637907
620000,0.766145,-11.444284,2.521094,-359.973572,-56.906010,-5.553937
624000,0.837971,-11.654974,2.825158,-359.454498,-56.005249,-4.073022
628000,0.766145,-11.817780,2.971204,-358.584259,-56.707539,-2.821113
632000,0.543484,-12.126632,3.157952,-356.736938,-59.012882,-1.492869
636000,0.320823,-12.287044,3.244143,-354.401062,-62.799141,0.278123
640000,0.251391,-12.469003,3.289633,-352.324738,-67.180817,1.865910
644000,0.155623,-12.677298,3.569755,-350.156799,-69.623566,3.804841
648000,0.153229,-12.866440,4.058172,-347.118622,-71.211349,6.293391
652000,0.098162,-12.938266,4.515464,-343.347626,-73.455627,8.781940
656000,0.191536,-13.046005,4.996699,-338.019379,-74.906006,11.209421
660000,0.201113,-13.084312,5.276821,-332.049927,-75.073944,13.255222
664000,0.411803,-13.182474,5.657499,-326.752197,-75.531960,15.346826
668000,0.505177,-13.177686,6.050148,-321.225494,-74.982346,17.255222
672000,0.677559,-13.374011,6.325481,-315.698761,-71.425095,19.591101
676000,0.579397,-13.457808,6.880936,-310.324738,-64.646461,22.003315
680000,0.481235,-13.577518,7.283162,-304.950684,-57.043415,24.751406
684000,0.354342,-13.618219,7.812280,-298.614807,-49.684635,27.530033
688000,0.509965,-13.661315,8.286332,-291.072815,-41.241890,29.850643
692000,0.478840,-13.644555,8.707711,-283.057556,-31.425095,31.774307
696000,0.450110,-13.606248,9.052477,-273.576630,-22.127384,33.697971
700000,0.090980,-13.697227,9.239224,-261.210236,-14.661736,36.247589
704000,-0.311246,-13.642161,9.452309,-247.393448,-10.753339,39.468964
708000,-0.392649,-13.704411,9.682152,-232.599548,-6.356392,42.644535
712000,-0.500388,-13.567941,9.629479,-216.095734,-3.562499,46.171253
716000,-0.622492,-13.275848,9.342175,-199.652985,-3.455629,48.369728
720000,-0.555455,-13.333309,9.351752,-183.530853,-6.844942,52.094917
724000,0.043096,-12.928689,8.906430,-166.721695,-2.646469,54.659801
728000,-0.418985,-12.674904,7.855376,-152.187332,-5.394560,56.064384
732000,-0.081403,-12.574347,7.175423,-140.523209,-9.226622,58.522400
736000,0.090980,-12.275072,6.878541,-128.828552,-11.364026,60.171253
740000,0.450110,-12.097901,6.509834,-116.675880,-12.280057,60.827744
744000,0.656011,-11.796232,6.023811,-106.416336,-14.524332,61.026215
748000,1.086968,-11.561600,5.281609,-95.759850,-12.921278,60.644535
752000,1.429338,-11.291056,4.575319,-87.149162,-9.165553,60.537666
756000,1.489193,-11.101913,3.718195,-78.813286,-6.829675,59.010948
760000,1.683124,-10.864887,3.055001,-73.775116,-6.509064,57.148354
764000,1.893813,-10.692505,2.616863,-71.485039,-8.280057,54.812473
768000,2.047042,-10.594342,2.154782,-69.088097,-4.096850,52.415527
772000,2.056619,-10.450690,1.769315,-67.530846,-2.844942,49.759041
776000,1.838747,-10.342952,1.596933,-65.790382,-4.142652,46.720871
780000,1.881842,-10.393229,1.448492,-63.561378,-4.829675,43.316292
784000,1.819593,-10.402806,1.429338,-61.576645,-5.333491,39.926979
788000,1.651999,-10.424355,1.407791,-59.622444,-7.348759,36.262856
792000,1.599327,-10.414778,1.584962,-57.408703,-8.264790,32.949879
796000,1.525106,-10.474632,1.860295,-54.965958,-11.043416,29.835377
800000,1.450886,-10.500969,2.252944,-51.118629,-11.730438,26.690338
804000,1.273715,-10.477027,2.272097,-47.164429,-12.081584,24.155987
808000,1.189918,-10.450690,2.178724,-43.225498,-12.127385,21.850643
812000,1.094150,-10.450690,2.027889,-39.408703,-9.913645,20.125452
816000,0.912191,-10.395624,1.750161,-35.973591,-9.486164,18.415529
820000,0.950498,-10.333375,1.594538,-33.332367,-7.730438,16.873545
824000,0.998382,-10.232818,1.446098,-30.645348,-5.226621,15.377359
828000,0.842759,-10.213664,1.130063,-29.103359,-2.799140,14.033848
832000,0.790087,-10.220847,0.768539,-27.714048,-0.142652,12.552932
836000,0.687136,-10.070012,0.596156,-26.736948,1.445134,11.499497
840000,0.632069,-10.101137,0.483629,-25.958323,1.842081,10.278123
844000,0.466869,-10.050858,0.220267,-24.920155,1.032921,9.682703
848000,0.442927,-10.012551,-0.028730,-24.706415,-0.463263,8.644535
852000,0.361524,-9.969456,-0.023942,-25.301834,-3.012881,7.743772
856000,0.165200,-10.098742,-0.035913,-25.118628,-3.852576,7.438429
860000,0.196325,-10.038888,-0.112527,-25.317102,-3.913644,7.255223
864000,0.375890,-10.046070,-0.158017,-24.981224,-5.715171,6.766673
868000,0.409408,-10.065224,0.014365,-25.271299,-5.593033,6.369727
872000,0.371101,-10.165780,-0.102951,-25.729315,-5.577766,6.110185
876000,0.246603,-10.149021,0.047884,-25.881987,-5.944179,5.911711
880000,0.299275,-10.194510,0.191536,-25.118628,-5.440361,6.400261
884000,0.265756,-10.127473,0.328006,-23.973591,-4.264789,6.766673
888000,0.227449,-10.084377,0.193930,-22.278934,-3.608301,7.041482
892000,0.208296,-10.036493,0.169988,-21.164431,-3.012881,7.453696
896000,0.232238,-10.024523,0.239420,-19.698780,-2.005247,7.667436
900000,0.275333,-9.947908,0.359130,-18.294201,-1.272423,7.636902
904000,0.332794,-9.923966,0.447716,-16.721682,-0.051049,7.362093
908000,0.330400,-9.919178,0.495600,-14.416339,0.727577,7.362093
912000,0.203507,-9.890448,0.490811,-11.881988,0.177959,6.995681
916000,0.220267,-9.897630,0.452504,-9.133897,0.177959,6.293391
920000,0.189142,-9.825804,0.608127,-6.736950,0.300096,5.957513
924000,0.076614,-9.859323,0.478840,-3.927789,0.712310,6.094917
928000,0.031125,-9.804255,0.478840,-1.805652,0.254295,5.911711
932000,0.086191,-9.794679,0.318429,-0.019392,0.468035,5.835375
936000,-0.043096,-9.780313,0.301669,1.308852,0.498570,5.423162
940000,0.000000,-9.634268,0.306458,2.545493,1.185592,5.362093
944000,0.148441,-9.612720,0.131681,3.766867,1.979486,4.980413
948000,0.129287,-9.552865,-0.102951,4.774501,3.017654,4.461329
952000,0.110133,-9.466674,-0.287304,5.354653,4.071089,4.110185
956000,0.201113,-9.485827,-0.450110,6.041677,4.987119,3.453696
960000,0.174777,-9.414001,-0.644040,6.163814,6.452768,2.965146
964000,0.050278,-9.351752,-0.861913,5.461524,6.956585,2.400261
968000,0.026336,-9.311050,-0.986411,4.743967,5.979486,2.018581
972000,-0.055067,-9.320627,-0.957681,3.629463,5.139791,1.682703
976000,0.035913,-9.291897,-1.089362,2.576027,3.735211,0.980413
980000,-0.011971,-9.320627,-1.101333,1.522592,1.994753,0.354459
984000,0.043096,-9.366117,-1.175553,0.438623,0.605440,-0.485235
988000,0.019154,-9.306262,-1.185130,-0.721682,-0.173186,-1.233327
992000,-0.055067,-9.311050,-1.283292,-2.004125,-1.318224,-1.782945
996000,0.031125,-9.299079,-1.206678,-3.744583,-2.738072,-2.302029
1000000,0.081403,-9.294291,-1.185130,-4.660614,-3.531965,-3.095922
1004000,0.124498,-9.416395,-1.098939,-5.011759,-4.341125,-3.966152
1008000,0.047884,-9.313444,-0.921768,-5.668247,-4.814407,-4.607373
1012000,0.059855,-9.430760,-0.826000,-5.668247,-4.890743,-5.019587
1016000,-0.045490,-9.447520,-0.560243,-5.988858,-4.783873,-5.523403
1020000,0.071826,-9.521740,-0.375890,-5.332370,-3.974713,-5.844014
1024000,0.021548,-9.660604,-0.158017,-4.416339,-3.073950,-6.347831
1028000,0.007183,-9.658210,-0.225055,-3.225499,-1.699904,-6.668441
1032000,-0.165200,-9.670180,-0.215478,-2.736950,-1.425095,-6.836380
1036000,-0.093374,-9.686940,-0.038307,-1.011759,-1.791507,-6.882182
1040000,-0.172383,-9.720459,-0.040701,-0.065194,-0.722805,-6.805846
1044000,-0.282516,-9.715671,-0.241814,0.789768,0.315363,-6.134090
1048000,-0.181959,-9.773131,-0.294487,0.957707,0.559638,-5.462335
1052000,-0.313640,-9.792285,-0.268151,1.644730,1.811547,-5.187525
1056000,-0.272939,-9.742006,-0.129287,1.904272,2.437501,-4.866915
1060000,-0.232238,-9.813833,-0.076614,2.942440,4.116890,-4.134090
1064000,-0.229843,-9.696517,-0.198719,4.270684,5.674142,-3.309663
1068000,-0.277727,-9.761160,-0.320823,5.018775,6.193226,-2.698976
1072000,-0.332794,-9.682152,-0.541090,4.850837,6.025287,-2.469968
1076000,-0.418985,-9.677363,-0.488417,4.621829,6.254295,-1.615006
1080000,-0.363919,-9.686940,-0.727837,4.499691,6.880249,-0.775312
1084000,-0.509965,-9.715671,-0.849942,4.530226,5.948951,-0.057755
1088000,-0.533907,-9.720459,-0.928950,4.133279,4.956585,0.720871
1092000,-0.521936,-9.622296,-1.058237,3.232516,4.254295,1.224688
1096000,-0.445322,-9.670180,-1.094150,1.995875,3.139791,1.774307
1100000,-0.430956,-9.674969,-1.060631,0.774501,2.010020,2.155986
1104000,-0.311246,-9.660604,-0.921768,-0.019392,1.384066,2.247589
1108000,-0.193930,-9.753978,-0.955287,-0.706415,0.742844,2.094917
1112000,-0.136469,-9.684546,-0.869095,-1.133896,0.468035,1.636902
1116000,-0.007183,-9.698911,-0.727837,-1.301835,0.269562,1.224688
1120000,0.047884,-9.684546,-0.667982,-0.935423,0.147424,0.552933
1124000,0.263362,-9.615114,-0.612916,-0.599545,-0.005247,-0.149358
1128000,0.328006,-9.622296,-0.684742,-0.462140,0.132157,-0.958518
1132000,0.241814,-9.646238,-0.864307,-0.538476,0.544371,-1.935617
1136000,0.203507,-9.612720,-0.864307,-0.798018,-0.280056,-3.034854
1140000,0.347159,-9.627085,-0.651223,-0.752217,-0.386927,-3.706610
1144000,0.260968,-9.615114,-0.739808,-1.057560,-0.692270,-4.744777
1148000,0.186748,-9.689334,-0.715866,-1.133896,-1.425095,-4.912716
1152000,0.138864,-9.737218,-0.512359,-1.164430,-2.127385,-5.508136
1156000,0.117316,-9.797073,-0.464475,-1.042293,-2.112118,-5.584472
1160000,0.011971,-9.818622,-0.248997,-0.752217,-2.264789,-5.615006
1164000,-0.059855,-9.868899,-0.263362,-0.401072,-2.722805,-5.676075
1168000,-0.076614,-9.923966,-0.153229,0.545493,-2.967079,-5.569205
1172000,-0.160412,-9.950302,-0.201113,1.629462,-2.646469,-4.744777
1176000,-0.098162,-9.986216,-0.141258,2.362287,-2.112118,-4.393632
1180000,-0.102951,-9.976639,-0.385466,3.018775,-1.348759,-3.828747
1184000,0.043096,-9.890448,-0.466869,2.942440,-0.783873,-3.248594
1188000,0.148441,-9.979033,-0.490811,2.759233,-0.173186,-3.279129
1192000,0.009577,-9.904813,-0.593762,2.927173,-0.325858,-2.851648
1196000,0.110133,-9.873688,-0.641646,2.728699,-0.203721,-3.004319
1200000,0.095768,-9.914390,-0.672771,2.392821,-0.081583,-2.805846
1204000,-0.021548,-9.952697,-0.579397,2.392821,-0.463263,-2.637907
1208000,-0.045490,-9.897630,-0.526724,2.469157,-1.089217,-2.531037
1212000,-0.057461,-9.878476,-0.677559,2.453890,-1.745705,-2.103556
1216000,-0.045490,-9.842564,-0.770933,2.285951,-2.188453,-2.088289
1220000,-0.225055,-9.794679,-0.976834,1.721066,-2.600667,-1.431800
1224000,-0.160412,-9.876082,-0.888249,1.110379,-2.417461,-0.790579
1228000,-0.126893,-9.804255,-1.031901,0.392821,-1.806774,-0.134090
1232000,-0.086191,-9.765948,-1.201889,-0.645346,-0.936545,0.049116
1236000,-0.122104,-9.679757,-1.125275,-1.805652,-0.447995,0.568200
1240000,-0.002394,-9.706094,-0.921768,-2.385804,-0.310591,0.552933
1244000,0.002394,-9.689334,-0.823605,-2.675881,-0.554866,0.827742
1248000,-0.040701,-9.655815,-0.806846,-2.965957,-0.249522,0.781940
1252000,0.014365,-9.641450,-0.667982,-2.889621,-0.356392,0.781940
1256000,-0.031125,-9.655815,-0.579397,-2.569010,-0.463263,0.659803
1260000,-0.114922,-9.646238,-0.529119,-2.492675,-1.455629,0.797207
1264000,-0.076614,-9.684546,-0.292093,-1.912522,-2.341125,0.919345
1268000,-0.002394,-9.643845,-0.265756,-0.874354,-2.997614,1.056749
1272000,0.105345,-9.670180,-0.304064,0.194348,-3.058682,0.888810
1276000,0.122104,-9.634268,-0.421380,0.972974,-2.906011,0.873543
1280000,0.191536,-9.655815,-0.330400,1.156180,-1.715171,0.858276
1284000,0.196325,-9.682152,-0.387861,1.492058,-1.684637,0.400261
1288000,0.165200,-9.684546,-0.356736,1.766867,-1.425095,0.293391
1292000,0.232238,-9.605537,-0.409408,2.087478,-1.089217,0.125452
1296000,0.253785,-9.667787,-0.402226,2.240149,-0.402194,-0.240961
1300000,0.323217,-9.679757,-0.495600,2.163814,-0.341125,-0.454701
1304000,0.421380,-9.660604,-0.519542,2.133279,0.086356,-1.065388
1308000,0.483629,-9.689334,-0.464475,2.423356,0.697043,-1.828747
1312000,0.368707,-9.643845,-0.596156,2.209615,1.078722,-2.363098
1316000,0.306458,-9.610326,-0.730232,2.026409,0.758111,-2.653174
1320000,0.325611,-9.646238,-0.679953,1.446256,0.177959,-2.927984
1324000,0.201113,-9.667787,-0.773327,1.018775,-0.280056,-3.294396
1328000,0.177171,-9.677363,-0.782904,0.194348,-0.844942,-3.202793
1332000,0.090980,-9.634268,-0.596156,-0.019392,-1.455629,-3.141724
1336000,0.124498,-9.725247,-0.562637,-0.049927,-1.119751,-2.912716
1340000,0.186748,-9.701305,-0.665588,-0.156797,-0.188453,-2.744777
1344000,-0.023942,-9.720459,-0.701501,-0.553744,0.864982,-2.622640
1348000,-0.083797,-9.660604,-0.758962,-1.179698,1.536737,-1.996686
1352000,-0.155623,-9.665392,-0.758962,-1.775118,1.445134,-1.721877
1356000,-0.086191,-9.686940,-0.691924,-1.881988,1.689409,-1.263861
1360000,-0.014365,-9.684546,-0.562637,-2.294202,1.857348,-0.989052
1364000,0.038307,-9.698911,-0.579397,-1.943056,2.452768,-0.989052
1368000,0.014365,-9.785102,-0.569820,-1.744583,2.819180,-0.927984
1372000,-0.050278,-9.674969,-0.512359,-1.393438,2.803913,-1.019587
1376000,-0.026336,-9.662998,-0.572214,-0.767484,2.361165,-1.324930
1380000,0.011971,-9.739613,-0.488417,-0.187331,1.842081,-1.263861
1384000,0.136469,-9.706094,-0.639252,0.224882,1.582539,-1.737144
1388000,0.146046,-9.710882,-0.684742,0.301218,1.399333,-2.332564
1392000,0.143652,-9.648633,-0.634463,0.698165,1.078722,-2.256228
1396000,0.131681,-9.703699,-0.569820,0.835569,1.032921,-2.546304
1400000,-0.021548,-9.739613,-0.725443,1.369921,0.910783,-2.790579
1404000,-0.028730,-9.744401,-0.730232,1.507325,-0.112117,-2.821113
1408000,-0.038307,-9.789890,-0.636858,1.583661,-1.211354,-2.668442
1412000,-0.114922,-9.751583,-0.550666,1.782134,-1.852576,-2.271495
1416000,-0.083797,-9.785102,-0.452504,1.873737,-1.913644,-1.844014
1420000,-0.064643,-9.787497,-0.526724,1.995875,-1.287690,-1.370732
1424000,-0.205901,-9.825804,-0.543484,1.705798,-0.906011,-0.576838
1428000,-0.117316,-9.832987,-0.560243,1.644730,-0.738072,-0.088289
1432000,-0.134075,-9.811439,-0.682347,1.461524,-0.738072,0.522398
1436000,-0.069432,-9.737218,-0.593762,1.369921,-0.173186,1.301024
1440000,0.102951,-9.706094,-0.720655,1.003508,0.635974,1.575833
1444000,0.160412,-9.710882,-0.730232,0.453890,1.933684,1.743772
1448000,0.179565,-9.629479,-0.924162,0.163814,2.315363,1.453696
1452000,0.124498,-9.595961,-0.718261,-0.141530,2.742844,1.514765
1456000,0.172383,-9.533711,-0.737414,-0.446873,2.498570,1.331558
1460000,0.165200,-9.598354,-0.725443,-0.584278,1.597806,0.858276
1464000,0.165200,-9.528923,-0.766145,-0.706415,0.987119,0.446062
1468000,0.215478,-9.555259,-0.624887,-0.691148,0.010020,0.003314
1472000,0.232238,-9.583989,-0.509965,-0.920156,-0.844942,-0.592106
1476000,0.227449,-9.679757,-0.447716,-0.798018,-1.226621,-0.958518
1480000,0.213084,-9.631873,-0.375890,-0.523209,-0.829675,-1.447067
1484000,0.189142,-9.706094,-0.308852,-0.309469,-1.318224,-1.660808
1488000,0.119710,-9.715671,-0.390255,0.056943,-1.822041,-2.225693
1492000,0.174777,-9.720459,-0.505177,0.362287,-1.791507,-2.317297
1496000,0.126893,-9.725247,-0.371101,0.453890,-1.715171,-2.179892
1500000,0.126893,-9.840169,-0.416591,0.484424,-0.768606,-2.164625
1504000,0.189142,-9.789890,-0.440533,0.637096,0.177959,-2.424167
1508000,0.035913,-9.828198,-0.344765,0.545493,1.078722,-2.271495
1512000,0.009577,-9.864111,-0.407014,0.637096,1.002386,-2.011953
1516000,0.002394,-9.888053,-0.320823,1.018775,1.429867,-1.889816
1520000,-0.033519,-9.885659,-0.227449,1.614195,1.628341,-1.615006
1524000,-0.067038,-9.878476,-0.325611,2.224883,1.887883,-1.324930
1528000,-0.098162,-9.880871,-0.342371,2.652363,2.040554,-1.004319
1532000,-0.007183,-9.938332,-0.478840,2.881371,2.391699,-0.531037
1536000,0.076614,-9.832987,-0.586579,2.988241,2.987119,-0.271495
1540000,0.031125,-9.873688,-0.588974,3.156180,2.498570,0.018581
1544000,-0.028730,-9.775525,-0.651223,2.988241,2.330631,0.140719
1548000,0.055067,-9.773131,-0.577003,2.972974,1.964218,-0.011953
1552000,0.126893,-9.734824,-0.579397,2.621829,1.994753,0.354459
1556000,0.083797,-9.698911,-0.746991,2.301218,1.582539,0.094917
1560000,0.208296,-9.725247,-0.749385,1.919539,2.162692,-0.011953
1564000,0.160412,-9.730036,-0.794875,1.537859,2.437501,-0.271495
1568000,0.256180,-9.725247,-0.885855,1.217249,2.361165,-0.576838
1572000,0.167594,-9.713276,-0.751779,0.545493,1.689409,-0.668442
1576000,0.191536,-9.746795,-0.703895,0.514959,1.307730,-1.279129
1580000,0.090980,-9.706094,-0.596156,0.377554,0.941318,-1.340197
1584000,0.184354,-9.792285,-0.579397,0.377554,0.559638,-1.782945
1588000,0.215478,-9.799467,-0.433351,0.545493,-0.035782,-1.767678
1592000,0.023942,-9.890448,-0.430956,0.514959,-0.020514,-1.966151
1596000,0.014365,-9.964667,-0.332794,0.957707,-0.356392,-1.859281
1600000,-0.083797,-9.935937,-0.263362,0.972974,-0.585400,-1.630274
1604000,-0.081403,-9.993398,-0.162806,1.766867,-0.218988,-1.324930
1608000,-0.158017,-9.993398,-0.138864,2.255417,0.147424,-1.065388
1612000,-0.112527,-9.964667,-0.074220,2.591295,0.513837,-0.347831
1616000,-0.181959,-9.950302,-0.155623,3.018775,0.773379,-0.302029
1620000,-0.019154,-9.888053,-0.126893,4.056943,1.048188,0.278123
1624000,-0.110133,-9.854534,-0.325611,4.881371,1.735211,0.629268
1628000,-0.201113,-9.830592,-0.596156,4.911905,1.704676,1.270490
1632000,-0.019154,-9.804255,-0.737414,4.423356,1.857348,1.636902
1636000,-0.064643,-9.713276,-0.672771,3.965340,1.979486,2.049116
1640000,0.067038,-9.569624,-0.627281,3.751600,1.368798,2.049116
1644000,0.016759,-9.569624,-0.646434,3.614195,0.895516,2.217055
1648000,0.026336,-9.531317,-0.533907,3.492058,0.697043,2.094917
1652000,-0.033519,-9.500193,-0.632069,3.492058,0.422234,2.247589
1656000,0.098162,-9.488221,-0.730232,3.018775,0.620707,2.232322
1660000,0.191536,-9.495404,-0.833182,2.530226,0.498570,1.850642
1664000,0.258574,-9.516952,-0.950498,2.011142,0.147424,1.804841
1668000,0.380678,-9.454702,-1.007959,1.690531,0.590173,0.873543
1672000,0.390255,-9.457097,-0.967257,0.713432,1.246661,0.278123
1676000,0.438139,-9.428367,-0.964863,-0.141530,1.628341,-0.408900
1680000,0.371101,-9.425972,-0.921768,-0.721682,1.307730,-1.080655
1684000,0.385466,-9.409213,-0.933739,-1.500308,0.758111,-1.996686
1688000,0.292093,-9.454702,-0.699107,-1.851454,0.239028,-2.744777
1692000,0.193930,-9.476251,-0.579397,-2.049927,-0.753339,-3.309663
1696000,0.114922,-9.615114,-0.474052,-1.820919,-1.241889,-3.706610
1700000,0.043096,-9.636662,-0.244209,-1.286568,-1.776240,-3.782945
1704000,-0.007183,-9.804255,-0.146046,-0.813286,-2.142652,-4.088289
1708000,-0.045490,-9.883265,-0.114922,-0.034660,-1.852576,-3.737144
1712000,-0.074220,-9.897630,-0.138864,0.728699,-1.470896,-3.447068
1716000,-0.019154,-10.002975,-0.045490,1.476791,-1.257156,-3.156991
1720000,-0.062249,-9.971850,0.009577,2.530226,-0.417461,-2.897449
1724000,0.071826,-10.010158,-0.064643,3.324119,1.017653,-2.363098
1728000,0.067038,-10.067618,-0.155623,4.362287,1.674142,-2.042487
1732000,-0.016759,-10.029311,-0.160412,4.988241,2.101623,-1.309663
1736000,-0.119710,-10.050858,-0.160412,5.675264,2.605440,-0.790579
1740000,-0.045490,-9.969456,-0.418985,5.873737,3.368799,-0.042487
1744000,0.076614,-9.873688,-0.476446,5.583661,3.536737,0.446062
1748000,0.110133,-9.897630,-0.517148,4.911905,3.292463,0.736139
1752000,0.138864,-9.768343,-0.627281,4.743967,2.452768,0.720871
1756000,0.134075,-9.794679,-0.684742,4.728699,1.506203,1.010948
1760000,0.201113,-9.670180,-0.799663,4.209615,1.261928,1.026215
1764000,0.213084,-9.653421,-0.840365,3.354653,1.093989,0.995681
1768000,0.174777,-9.677363,-0.828394,2.637096,1.384066,0.934612
1772000,0.191536,-9.576807,-0.785298,1.782134,1.032921,0.873543
1776000,0.196325,-9.583989,-0.672771,1.034043,0.971852,0.568200
1780000,0.129287,-9.538500,-0.715866,0.667630,0.559638,0.583467
1784000,0.071826,-9.615114,-0.495600,0.591295,0.040554,0.339192
1788000,0.064643,-9.682152,-0.459687,0.850837,0.177959,0.217055
1792000,0.167594,-9.691729,-0.411803,0.881371,1.078722,0.079650
1796000,0.177171,-9.710882,-0.366313,0.820302,1.765745,0.049116
1800000,0.057461,-9.684546,-0.337582,0.896638,1.872615,-0.164625
1804000,0.035913,-9.639056,-0.507571,1.339386,1.521470,-0.531037
1808000,0.035913,-9.730036,-0.363919,1.797401,1.322997,-0.866915
1812000,0.019154,-9.816227,-0.519542,2.102745,1.002386,-0.897449
1816000,0.014365,-9.816227,-0.395043,2.270684,0.651241,-1.065388
1820000,0.079009,-9.837775,-0.385466,2.453890,0.437501,-0.927984
1824000,0.000000,-9.940725,-0.457293,2.621829,-0.356392,-0.882182
1828000,0.100556,-9.914390,-0.543484,2.637096,-0.738072,-1.080655
1832000,0.124498,-9.957485,-0.553061,2.881371,-0.509064,-1.019587
1836000,0.088585,-9.909601,-0.512359,2.408089,-0.509064,-1.004319
1840000,0.095768,-9.940725,-0.562637,2.362287,-0.127385,-0.744777
1844000,0.019154,-9.914390,-0.447716,2.148547,0.193226,-0.485235
1848000,0.055067,-9.971850,-0.536301,2.026409,0.116890,-0.393632
1852000,0.040701,-9.933543,-0.399832,1.766867,0.193226,-0.011953
1856000,-0.019154,-9.955091,-0.313640,1.553127,0.300096,0.384994
1860000,0.134075,-9.880871,-0.239420,1.553127,0.819180,0.552933
1864000,0.239420,-9.852140,-0.134075,1.904272,1.322997,0.339192
1868000,0.227449,-9.885659,-0.193930,2.316485,1.414600,0.140719
1872000,0.232238,-9.849746,-0.083797,2.911905,1.384066,0.323925
1876000,0.248997,-9.825804,-0.241814,3.522592,1.414600,0.201787
1880000,0.316035,-9.706094,-0.335188,3.797401,0.864982,-0.317297
1884000,0.287304,-9.698911,-0.258574,3.812669,0.483302,-0.332564
1888000,0.275333,-9.627085,-0.213084,3.812669,0.010020,-0.836380
1892000,0.330400,-9.586384,-0.251391,3.812669,-0.493797,-1.034854
1896000,0.311246,-9.600749,-0.318429,3.919539,-1.028148,-1.584472
1900000,0.284910,-9.619903,-0.258574,3.980608,-0.982347,-1.935617
1904000,0.256180,-9.600749,-0.174777,4.133279,-1.501431,-2.195159
1908000,0.229843,-9.624691,-0.268151,4.606562,-1.348759,-2.363098
1912000,0.153229,-9.698911,-0.304064,4.682898,-1.806774,-2.683709
1916000,0.059855,-9.665392,-0.335188,4.713432,-2.218988,-2.790579
1920000,0.093374,-9.744401,-0.378284,4.652363,-2.493797,-3.126457
1924000,0.081403,-9.821015,-0.349553,4.438623,-1.944179,-2.836380
1928000,0.134075,-9.787497,-0.450110,4.102745,-1.425095,-3.156991
1932000,0.059855,-9.794679,-0.553061,4.347020,-1.302957,-2.805846
1936000,-0.043096,-9.835381,-0.648829,4.072211,-1.715171,-2.622640
1940000,-0.026336,-9.856929,-0.560243,3.690531,-1.989980,-2.469968
1944000,-0.191536,-9.847352,-0.450110,3.736333,-1.699904,-2.088289
1948000,-0.090980,-9.806650,-0.483629,3.583661,-1.638835,-1.874548
1952000,0.047884,-9.758766,-0.505177,3.675264,-0.799140,-1.477602
1956000,-0.004788,-9.751583,-0.509965,3.721066,-0.005247,-1.431800
1960000,0.004788,-9.777920,-0.474052,3.965340,0.254295,-1.111190
1964000,0.047884,-9.722853,-0.519542,3.476791,1.032921,-1.279129
1968000,0.026336,-9.677363,-0.428562,3.659997,1.307730,-0.912716
1972000,0.019154,-9.658210,-0.603339,3.461524,1.246661,-1.004319
1976000,0.040701,-9.672575,-0.543484,3.430989,1.429867,-0.698976
1980000,0.076614,-9.617508,-0.553061,3.156180,1.948951,-0.485235
1984000,0.033519,-9.545682,-0.641646,2.927173,2.086356,-0.744777
1988000,0.105345,-9.579201,-0.553061,2.408089,1.781012,-0.164625
1992000,0.167594,-9.572019,-0.658405,2.087478,1.948951,-0.592106
1996000,0.043096,-9.507375,-0.533907,2.011142,1.216127,-0.912716
