time_us,ax,ay,az,gx,gy,gz
0,0.447716,-0.237026,8.588001,-2.034660,11.582539,-0.561571
4000,0.404620,-0.284910,8.549694,-2.752217,12.849714,-0.897449
8000,0.275333,-0.234632,8.372523,-3.271301,12.605439,-1.111190
12000,0.215478,-0.311246,8.468291,-3.378171,11.109256,-1.553938
16000,0.045490,-0.292093,8.427590,-3.378171,8.605439,-1.737144
20000,-0.007183,-0.308852,8.508993,-3.072828,6.116890,-2.057755
24000,-0.038307,-0.409408,8.458714,-3.118629,3.139791,-2.103556
28000,-0.067038,-0.378284,8.401254,-3.256034,-0.615934,-2.195159
32000,0.019154,-0.375890,8.458714,-3.591912,-3.837308,-2.439434
36000,-0.038307,-0.409408,8.616732,-3.881988,-6.005247,-2.531037
40000,0.000000,-0.383072,8.760384,-3.881988,-7.257155,-2.653174
44000,0.141258,-0.409408,8.911219,-3.973591,-6.371659,-2.454701
48000,0.201113,-0.464475,8.983045,-3.408705,-3.974713,-1.905083
52000,0.280122,-0.481235,9.169792,-2.660614,-0.142652,-1.324930
56000,0.569820,-0.378284,9.148245,-1.759850,4.406967,-1.156991
60000,0.399832,-0.332794,8.882488,-1.362904,7.933684,-1.095922
64000,0.344765,-0.368707,8.717288,-1.805652,9.048187,-1.355464
68000,0.320823,-0.337582,8.738836,-1.958324,11.078722,-1.370732
72000,0.256180,-0.407014,8.781932,-2.446873,12.086355,-1.477602
76000,0.169988,-0.366313,8.695741,-2.798018,12.071088,-1.569205
80000,0.067038,-0.411803,8.564059,-2.752217,11.032920,-1.553938
84000,-0.107739,-0.450110,8.722076,-2.416339,8.788646,-1.676075
88000,-0.138864,-0.519542,8.724471,-1.912522,6.193226,-1.782945
92000,-0.119710,-0.509965,8.848969,-1.240766,3.689409,-1.844014
96000,-0.150835,-0.483629,8.839393,-0.324736,0.651241,-1.844014
100000,-0.134075,-0.505177,8.774749,0.316485,-1.028148,-1.966151
104000,-0.004788,-0.476446,8.882488,0.560760,-1.913644,-1.752411
108000,0.021548,-0.421380,8.717288,0.194348,-1.531965,-1.844014
112000,-0.067038,-0.351948,8.746018,-0.110996,-0.585400,-1.645541
116000,0.019154,-0.385466,8.588001,-0.843820,0.666508,-1.340197
120000,-0.009577,-0.280122,8.564059,-1.607178,2.788646,-0.805846
124000,0.004788,-0.277727,8.489840,-2.462140,4.742845,-0.424167
128000,-0.011971,-0.263362,8.305486,-2.813286,6.895516,-0.195159
132000,0.071826,-0.229843,8.281544,-3.714049,8.055821,0.476597
136000,-0.040701,-0.289698,8.360553,-4.660614,7.994752,0.446062
140000,-0.031125,-0.268151,8.339005,-5.668247,7.887883,0.583467
144000,-0.002394,-0.328006,8.396465,-6.599545,7.353531,0.598734
148000,-0.131681,-0.399832,8.707711,-7.042294,5.643608,0.507131
152000,-0.023942,-0.471658,9.059659,-6.828553,4.223761,0.614001
156000,0.002394,-0.514753,9.227253,-5.637713,3.674142,0.583467
160000,0.064643,-0.536301,9.244013,-4.798018,3.872615,0.659803
164000,0.105345,-0.548272,9.215282,-4.095729,4.254295,0.476597
168000,0.124498,-0.517148,9.200917,-3.118629,5.277195,0.384994
172000,0.086191,-0.541090,9.155427,-2.446873,5.246661,0.522398
176000,0.028730,-0.536301,8.975863,-1.515576,5.399333,0.507131
180000,-0.009577,-0.548272,8.877700,-1.362904,5.246661,0.476597
184000,0.011971,-0.474052,8.784326,-0.889621,4.849715,0.705604
188000,-0.004788,-0.476446,8.844181,-0.675881,4.147425,0.598734
192000,-0.052672,-0.557849,8.951921,0.072211,2.559638,0.461329
196000,-0.004788,-0.526724,8.925584,0.881371,0.513837,0.293391
200000,-0.009577,-0.572214,8.978256,1.690531,-1.226621,0.125452
204000,0.031125,-0.493206,8.959103,2.209615,-2.570133,-0.073022
208000,0.191536,-0.553061,8.949526,2.240149,-3.760972,-0.485235
212000,0.201113,-0.442927,8.860941,2.728699,-4.753339,-0.561571
216000,0.294487,-0.380678,8.913613,2.896638,-5.012881,-1.050121
220000,0.385466,-0.402226,8.681376,3.095111,-4.127385,-1.431800
224000,0.275333,-0.323217,8.590396,2.927173,-2.570133,-2.011953
228000,0.186748,-0.304064,8.463503,1.980608,-1.470896,-1.889816
232000,0.141258,-0.328006,8.422802,1.064577,-0.203721,-2.195159
236000,0.181959,-0.275333,8.398860,-0.263667,1.017653,-1.584472
240000,0.153229,-0.241814,8.329428,-1.210232,2.406966,-1.752411
244000,0.100556,-0.184354,8.240842,-2.202598,3.521470,-1.584472
248000,0.069432,-0.220267,8.149862,-3.546110,3.872615,-1.721877
252000,0.083797,-0.270545,8.097190,-4.798018,3.765745,-1.782945
256000,0.110133,-0.256180,8.188169,-5.897255,3.460402,-1.798213
260000,-0.021548,-0.299275,8.403648,-7.256034,2.788646,-1.798213
264000,-0.067038,-0.459687,8.638280,-7.897255,2.834447,-1.553938
268000,-0.122104,-0.438139,8.894460,-7.836186,3.521470,-0.821113
272000,-0.134075,-0.459687,9.095572,-7.423973,3.887883,-0.683709
276000,-0.031125,-0.553061,9.069236,-6.813286,4.391699,-0.302029
280000,-0.023942,-0.600945,9.200917,-6.431606,5.429867,0.186520
284000,0.093374,-0.593762,9.176975,-5.927790,7.597806,0.904078
288000,0.064643,-0.577003,9.215282,-5.408706,9.231394,0.904078
292000,0.057461,-0.548272,9.153033,-5.042294,9.872615,1.270490
296000,0.136469,-0.529119,8.990228,-4.798018,10.620707,1.484230
300000,0.150835,-0.459687,8.937555,-4.706415,11.170325,1.453696
304000,0.076614,-0.569820,8.813056,-4.706415,10.406966,1.468963
308000,0.110133,-0.502782,8.690952,-4.736950,10.116890,1.530032
312000,0.102951,-0.519542,8.710106,-5.286569,9.964218,1.377360
316000,0.050278,-0.466869,8.676587,-5.652981,8.712310,1.285757
320000,0.090980,-0.502782,8.746018,-5.362904,7.689410,0.995681
324000,-0.021548,-0.557849,8.805874,-5.332370,7.017653,1.194154
328000,0.023942,-0.521936,8.825027,-5.011759,7.170325,1.133085
332000,-0.090980,-0.541090,8.832211,-5.149163,7.735211,1.316291
336000,-0.079009,-0.565032,8.595184,-5.118629,8.177958,1.713238
340000,-0.227449,-0.615310,8.561666,-5.637713,8.574905,2.278123
344000,-0.383072,-0.675165,8.614338,-6.110995,9.582539,2.843009
348000,-0.462081,-0.605733,8.604761,-6.660614,11.002386,3.652169
352000,-0.505177,-0.682347,8.664616,-7.072827,11.796279,4.705605
356000,-0.517148,-0.744597,8.817844,-6.920156,12.468035,5.881177
360000,-0.586579,-0.758962,8.736442,-6.523210,12.376431,6.675070
364000,-0.529119,-0.763750,8.846576,-6.187331,12.330630,7.652170
368000,-0.483629,-0.794875,8.904037,-5.927790,12.529103,8.018581
372000,-0.514753,-0.797269,8.884883,-5.317102,12.177958,8.446062
376000,-0.500388,-0.751779,8.894460,-4.645347,11.338264,8.659802
380000,-0.493206,-0.754174,8.851364,-3.912522,9.796279,8.781940
384000,-0.440533,-0.682347,8.887277,-3.469774,7.842081,8.736138
388000,-0.284910,-0.656011,8.856153,-2.782751,6.239028,8.659802
392000,-0.160412,-0.581791,8.743625,-2.095728,5.063455,8.201787
396000,-0.222661,-0.526724,8.710106,-1.897255,3.719944,8.003314
400000,-0.222661,-0.517148,8.535329,-2.507942,3.093989,7.804841
404000,-0.205901,-0.466869,8.446744,-3.240766,3.246661,7.804841
408000,-0.208296,-0.392649,8.394072,-4.385805,3.552005,7.636902
412000,-0.201113,-0.395043,8.511387,-5.591911,3.322997,7.789574
416000,-0.112527,-0.332794,8.480263,-6.355270,4.315363,7.392627
420000,0.043096,-0.366313,8.578424,-7.210233,5.445135,6.781940
424000,0.000000,-0.359130,8.518570,-7.500309,6.697043,6.598734
428000,0.110133,-0.325611,8.805874,-7.851454,7.536737,6.110185
432000,0.093374,-0.423774,8.985439,-7.485042,8.529103,5.499497
436000,0.160412,-0.407014,9.296685,-6.660614,9.460402,4.675070
440000,0.318429,-0.409408,9.430760,-5.607179,9.643607,3.591101
444000,0.383072,-0.395043,9.404425,-3.500308,10.101623,1.957513
448000,0.328006,-0.409408,9.538500,-1.179698,9.170325,0.461329
452000,0.076614,-0.457293,9.481039,0.881371,7.124524,-0.851648
456000,-0.021548,-0.483629,9.270349,3.980608,6.513837,-1.691342
460000,-0.184354,-0.531513,9.145850,5.003509,4.620707,-2.469968
464000,-0.220267,-0.536301,8.884883,5.583661,3.078722,-3.065388
468000,-0.502782,-0.584185,8.681376,6.133279,0.132157,-2.897449
472000,-0.500388,-0.605733,8.449138,6.530226,-2.386927,-2.973785
476000,-0.497994,-0.555455,8.279149,5.858470,-4.173186,-2.821113
480000,-0.328006,-0.505177,7.929596,5.232516,-5.730438,-2.973785
484000,-0.306458,-0.514753,7.908048,3.690531,-6.738071,-2.851648
488000,-0.294487,-0.497994,7.936779,2.347020,-7.699903,-3.141724
492000,-0.237026,-0.483629,8.015787,0.285951,-7.516697,-3.095922
496000,-0.294487,-0.560243,8.037335,-1.637713,-6.783873,-3.202793
500000,-0.378284,-0.548272,8.075643,-3.088094,-5.409827,-2.851648
504000,-0.562637,-0.586579,8.025364,-4.049927,-4.188453,-2.332564
508000,-0.462081,-0.610521,7.931990,-5.943057,-2.447995,-1.294396
512000,-0.469264,-0.581791,7.821857,-7.836186,0.055821,-0.698976
516000,-0.452504,-0.627281,7.745243,-9.744583,1.582539,-0.073022
520000,-0.395043,-0.560243,7.702147,-11.210233,2.132157,0.461329
524000,-0.430956,-0.591368,7.817069,-13.179698,2.941318,0.904078
528000,-0.481235,-0.579397,7.773973,-14.691148,3.338264,1.331558
532000,-0.418985,-0.581791,7.694964,-16.370537,3.231394,1.820108
536000,-0.268151,-0.569820,8.092402,-16.523209,2.727577,1.591100
540000,-0.083797,-0.545878,8.305486,-16.813284,2.590173,0.827742
544000,-0.059855,-0.560243,8.243237,-16.278934,1.261928,0.064383
548000,-0.189142,-0.536301,8.262390,-16.156796,0.635974,-0.729510
552000,-0.316035,-0.622492,8.279149,-15.790385,-0.218988,-1.187526
556000,-0.471658,-0.608127,8.070854,-16.614811,-1.577766,-1.553938
560000,-0.493206,-0.663194,8.104373,-17.332369,-0.295324,-0.973785
564000,-0.720655,-0.663194,7.987057,-18.324736,0.116890,-0.225693
568000,-0.581791,-0.656011,8.032547,-19.057560,0.742844,0.323925
572000,-0.488417,-0.651223,8.051701,-19.530842,0.529104,0.384994
576000,-0.347159,-0.629675,8.080431,-18.965956,-0.035782,0.430795
580000,-0.416591,-0.632069,7.814674,-18.782751,-1.394560,0.079650
584000,-0.409408,-0.574608,7.620744,-18.843819,-4.264789,0.018581
588000,-0.392649,-0.483629,7.187394,-20.782751,-6.493797,-0.317297
592000,-0.723049,-0.541090,6.744466,-24.233131,-7.959445,0.476597
596000,-1.065420,-0.689530,6.327875,-28.538475,-10.768606,1.896444
600000,-1.235408,-0.610521,5.841852,-34.217865,-13.211354,3.789574
604000,-1.213860,-0.629675,5.334281,-41.591911,-14.325858,5.881177
608000,-0.826000,-0.667982,4.891354,-48.996490,-12.951813,7.911711
612000,-0.469264,-0.553061,4.529830,-56.034660,-9.516698,8.736138
616000,-0.466869,-0.548272,4.065354,-65.897255,-12.692270,8.629268
620000,-0.122104,-0.536301,3.536236,-76.263664,-12.127385,8.278123
624000,0.328006,-0.452504,2.875436,-87.973587,-10.997614,7.560566
628000,1.041478,-0.411803,2.554613,-101.485039,-8.402194,5.331559
632000,1.750161,-0.359130,1.836353,-113.988861,-7.241889,1.407894
636000,2.054225,-0.306458,0.916979,-127.698784,-11.593034,-3.966152
640000,2.255338,-0.490811,-0.028730,-142.935425,-15.913645,-9.355465
644000,2.161964,-0.660800,-0.656011,-160.843826,-21.333492,-14.851648
648000,2.023100,-0.914585,-1.376666,-181.362915,-28.035782,-20.286762
652000,2.202666,-1.295263,-2.111686,-204.599548,-36.982346,-26.744778
656000,2.418144,-1.759738,-2.655170,-227.286575,-41.562500,-31.920349
660000,2.588132,-2.221819,-3.122039,-251.301849,-50.768608,-37.462334
664000,2.906561,-2.791639,-3.179500,-274.141510,-59.425095,-43.340199
668000,2.829947,-3.478775,-3.074155,-295.530823,-63.028149,-48.179890
672000,2.391808,-4.367024,-2.997540,-316.004120,-68.677002,-52.042488
676000,2.018312,-5.181053,-2.841918,-334.339996,-73.959442,-53.584473
680000,1.853112,-6.107608,-2.324770,-352.065186,-77.959442,-54.302029
684000,1.697489,-6.964733,-1.628057,-366.889618,-80.493790,-54.179890
688000,1.455675,-7.826645,-1.223437,-380.141510,-83.715164,-53.706608
692000,1.302446,-8.554482,-0.301669,-393.072815,-86.341125,-52.454700
696000,1.027112,-9.375694,0.847547,-401.362885,-86.615929,-49.691341
700000,0.926556,-9.988609,1.975216,-407.011749,-85.837303,-46.195160
704000,0.713472,-10.508151,2.949656,-410.034637,-86.554863,-42.363098
708000,0.562637,-10.893618,3.986346,-410.538483,-85.837303,-37.950882
712000,0.672771,-11.221623,4.580108,-409.408691,-84.188454,-33.905083
716000,0.770933,-11.633426,4.989516,-407.714050,-82.417458,-30.286762
720000,0.883460,-11.820174,5.406107,-406.080444,-78.646461,-26.897449
724000,0.842759,-11.994950,5.868188,-405.576630,-73.165550,-24.515770
728000,0.864307,-12.140997,6.337452,-404.202576,-67.043411,-21.782946
732000,0.483629,-12.325351,6.763620,-400.172058,-64.112114,-18.760044
736000,0.205901,-12.394782,6.938396,-395.698761,-63.440361,-15.385999
740000,-0.110133,-12.617443,7.026982,-390.095734,-62.554867,-11.340198
744000,-0.383072,-12.710816,6.947973,-383.759857,-64.127380,-8.195159
748000,-0.136469,-12.811374,6.876147,-380.339996,-64.493790,-3.324930
752000,0.189142,-12.741941,7.189788,-374.507935,-60.539600,0.507131
756000,0.526724,-12.741941,7.175423,-368.660614,-59.486164,3.499497
760000,0.596156,-12.672509,7.474698,-362.294189,-59.226624,4.827742
764000,0.691924,-12.612655,7.915231,-356.248383,-59.257156,7.713238
768000,0.620098,-12.557588,8.669404,-345.622437,-65.272423,8.888810
772000,0.940921,-12.545617,9.263166,-334.446869,-66.280052,11.163619
776000,0.905008,-12.471396,9.363723,-321.179688,-63.379295,13.911711
780000,0.905008,-12.437878,9.464279,-307.805634,-61.409828,16.308659
784000,0.991199,-12.272678,9.478644,-294.294189,-54.112118,19.713238
788000,1.127669,-12.253524,9.538500,-280.904877,-49.913643,21.850643
792000,1.331176,-12.176909,9.507375,-268.416321,-45.486164,22.980413
796000,1.474828,-12.064383,9.466674,-257.240753,-40.524330,23.865910
800000,1.254562,-11.925519,9.308656,-246.263672,-33.944180,25.148354
804000,1.199495,-11.860875,8.990228,-235.515579,-32.112118,25.911713
808000,1.376666,-11.808203,9.119514,-224.675888,-26.035782,26.812475
812000,1.613692,-11.789049,9.253590,-213.439240,-21.287691,27.591101
816000,1.666364,-11.729194,9.203311,-202.462143,-16.234255,27.896444
820000,1.683124,-11.719617,8.904037,-191.759857,-12.051049,27.896444
824000,1.498770,-11.571177,8.602366,-179.881989,-6.951812,28.430796
828000,1.362301,-11.563994,8.379706,-167.530853,-5.073949,28.781940
832000,1.154005,-11.453861,7.931990,-154.736954,-4.768606,29.178886
836000,1.187524,-11.343728,7.680599,-143.286575,-3.654102,29.530033
840000,1.149217,-11.391612,7.223307,-133.744583,-2.692270,29.255222
844000,1.086968,-11.197681,6.672640,-124.706413,-1.989980,29.621635
848000,0.957681,-11.073183,6.143522,-116.798019,-1.699904,30.064383
852000,1.000776,-10.927136,5.578490,-110.217865,-1.394560,30.400261
856000,1.079785,-10.855310,5.284003,-103.744583,-1.455629,30.308659
860000,1.154005,-10.778696,5.023035,-98.431602,-0.646469,30.430796
864000,1.209072,-10.673351,4.699818,-94.217865,0.544371,30.507132
868000,1.127669,-10.627861,4.539406,-90.263664,2.040554,30.537666
872000,1.074997,-10.527305,4.347870,-86.080460,3.307730,30.904078
876000,1.051055,-10.421960,4.168305,-83.301834,4.864982,31.499496
880000,1.098939,-10.400413,4.046201,-80.034660,6.941318,31.942245
884000,1.074997,-10.304645,3.825934,-77.179695,8.574905,32.461330
888000,1.043872,-10.158598,3.694253,-74.675880,9.765745,32.980415
892000,1.027112,-10.158598,3.404555,-72.523209,10.330630,33.621635
896000,1.024718,-10.079589,2.916138,-70.401070,10.452767,34.033848
900000,1.000776,-10.024523,2.647987,-68.843819,9.613073,34.675072
904000,1.177947,-10.017340,2.288857,-68.507942,10.162691,35.072018
908000,1.134852,-9.907207,1.924938,-69.103363,11.307730,35.224689
912000,1.185130,-9.926360,1.719037,-69.927788,11.384066,35.346825
916000,1.213860,-9.892841,1.735796,-70.691147,10.712310,35.178886
920000,1.230620,-9.909601,1.944092,-70.233131,10.437500,34.629269
924000,1.192312,-9.993398,2.027889,-68.767487,8.574905,34.125454
928000,1.218649,-9.926360,1.982399,-67.042290,6.055821,33.621635
932000,1.333570,-9.916783,2.296039,-65.408707,5.704677,33.072018
936000,1.304840,-9.904813,2.480393,-62.721680,7.124524,32.583466
940000,1.362301,-9.964667,2.655170,-58.477406,8.040554,31.270491
944000,1.441309,-9.926360,2.571373,-54.477406,7.903150,29.820108
948000,1.369483,-9.876082,2.585738,-51.088093,7.597806,28.049116
952000,1.386243,-9.888053,2.580950,-48.019390,8.208493,26.369726
956000,1.350330,-9.753978,2.528277,-45.072826,8.284829,24.507132
960000,1.312023,-9.737218,2.430115,-41.683514,7.735211,22.797209
964000,1.266533,-9.749189,2.513912,-38.446873,7.704676,20.858276
968000,1.297657,-9.653421,2.418144,-35.225498,7.506203,18.873545
972000,1.259350,-9.648633,2.288857,-31.805653,7.216127,16.843010
976000,1.194707,-9.593566,2.317587,-28.630077,6.956585,14.659802
980000,1.113304,-9.543288,2.209848,-25.454506,6.376432,12.293390
984000,1.089362,-9.552865,2.319981,-22.446873,5.658875,10.033848
988000,1.110910,-9.550470,2.439692,-19.347635,4.880249,7.636902
992000,0.914585,-9.528923,2.358289,-16.172064,4.437501,5.667437
996000,0.893037,-9.627085,2.114080,-12.965957,2.544371,4.079650
1000000,0.835576,-9.603143,1.960851,-10.523210,1.109257,2.323925
1004000,0.708684,-9.686940,1.625663,-8.736950,0.300096,1.117818
1008000,0.591368,-9.785102,1.414973,-7.439240,-1.058682,-0.073022
1012000,0.581791,-9.852140,1.115698,-6.569011,-1.699904,-0.561571
1016000,0.656011,-9.883265,0.919373,-6.721683,-1.348759,-0.653174
1020000,0.553061,-9.897630,0.675165,-7.454507,-0.997614,-0.775312
1024000,0.610521,-9.962274,0.459687,-8.904889,-0.814408,-0.286762
1028000,0.691924,-10.024523,0.366313,-10.752217,-0.829675,-0.408900
1032000,0.802058,-10.010158,0.454898,-12.553744,-0.661736,-0.240961
1036000,0.766145,-10.113108,0.699107,-13.943057,0.116890,-0.164625
1040000,0.854730,-10.117896,0.885855,-14.156796,1.506203,-0.042487
1044000,0.610521,-10.244789,1.103727,-14.416339,1.399333,0.537665
1048000,0.703895,-10.242394,1.369483,-14.233132,3.048188,0.949879
1052000,0.742203,-10.218452,1.510741,-13.423972,3.750478,1.133085
1056000,0.787692,-10.249578,1.838747,-12.065194,3.903150,1.209421
1060000,0.727837,-10.323798,1.994370,-10.034659,4.468035,1.209421
1064000,0.859518,-10.278308,2.090138,-7.546110,4.895516,0.888810
1068000,0.964863,-10.307038,2.008735,-4.706415,5.658875,0.155986
1072000,0.790087,-10.199299,1.905785,-2.446873,6.269562,-0.347831
1076000,0.713472,-10.251971,1.649605,-1.210232,6.758111,-0.576838
1080000,0.732626,-10.194510,1.491588,0.056943,7.261929,-1.065388
1084000,0.691924,-10.137050,1.261744,1.125646,6.788646,-1.416533
1088000,0.684742,-10.096349,1.221043,2.087478,5.933684,-2.195159
1092000,0.699107,-10.139444,1.233014,3.339386,6.193226,-2.714243
1096000,0.603339,-10.055647,1.108515,4.362287,6.132157,-3.034854
1100000,0.529119,-10.091560,0.921768,5.537859,5.002387,-3.905083
1104000,0.531513,-10.034100,0.888249,6.133279,3.475669,-4.317297
1108000,0.536301,-9.991004,0.885855,6.469157,3.384066,-5.248594
1112000,0.497994,-10.031705,0.878672,6.408089,2.910783,-5.385999
1116000,0.421380,-10.024523,0.821211,6.820302,3.185592,-5.569205
1120000,0.325611,-10.055647,0.797269,7.034043,3.719944,-5.462335
1124000,0.256180,-10.038888,0.790087,7.125646,3.277195,-5.279129
1128000,0.177171,-10.060435,0.723049,7.201982,2.315363,-5.050121
1132000,0.232238,-10.086772,0.624887,6.759233,2.773379,-4.485235
1136000,0.241814,-10.072407,0.502782,6.194348,3.048188,-3.905083
1140000,0.196325,-10.005369,0.253785,5.339386,3.048188,-3.050121
1144000,0.045490,-9.993398,0.222661,3.965340,2.651241,-2.378365
1148000,0.146046,-10.050858,0.349553,2.881371,2.284829,-1.492869
1152000,0.098162,-10.007763,0.368707,2.392821,1.261928,-0.637907
1156000,0.081403,-9.957485,0.464475,1.919539,0.483302,0.720871
1160000,0.232238,-9.955091,0.438139,1.156180,0.483302,1.423162
1164000,0.193930,-9.876082,0.567426,0.637096,0.635974,1.972780
1168000,0.330400,-9.907207,0.588974,0.805035,0.361165,2.827742
1172000,0.375890,-9.734824,0.677559,0.911905,0.330631,3.072016
1176000,0.497994,-9.703699,0.648829,1.125646,0.254295,3.392627
1180000,0.442927,-9.658210,0.682347,1.171447,1.185592,3.652169
1184000,0.529119,-9.593566,0.727837,1.308852,1.674142,3.682703
1188000,0.548272,-9.485827,0.727837,1.339386,1.475669,3.972780
1192000,0.646434,-9.552865,0.696713,1.430989,2.284829,4.003314
1196000,0.512359,-9.488221,0.718261,1.705798,3.048188,3.881177
1200000,0.742203,-9.454702,0.787692,2.285951,3.567272,3.896444
1204000,0.821211,-9.409213,0.761356,2.392821,4.177959,2.980413
1208000,0.751779,-9.442732,0.682347,2.789768,4.193226,2.644536
1212000,0.814029,-9.409213,0.794875,3.553127,4.834447,1.804841
1216000,0.897826,-9.392453,0.682347,3.400455,2.651241,0.659803
1220000,0.859518,-9.344569,0.612916,3.950073,3.307730,-0.195159
1224000,0.840365,-9.354146,0.562637,3.919539,2.666508,-0.805846
1228000,0.897826,-9.385271,0.476446,4.011142,2.895516,-1.950884
1232000,0.735020,-9.392453,0.344765,3.919539,2.880249,-2.317297
1236000,0.646434,-9.387665,0.198719,3.614195,2.223760,-2.531037
1240000,0.617704,-9.387665,0.253785,2.942440,1.643608,-3.019587
1244000,0.497994,-9.418790,0.304064,2.392821,0.834447,-3.126457
1248000,0.514753,-9.481039,0.505177,2.102745,0.132157,-3.172258
1252000,0.404620,-9.555259,0.524330,1.812669,0.330631,-2.592106
1256000,0.361524,-9.562442,0.572214,1.782134,0.529104,-2.256228
1260000,0.407014,-9.509769,0.507571,1.736333,0.758111,-1.645541
1264000,0.361524,-9.569624,0.478840,1.507325,1.704676,-0.821113
1268000,0.368707,-9.543288,0.361524,1.095111,2.239028,-0.485235
1272000,0.565032,-9.509769,0.409408,0.347020,2.971852,-0.073022
1276000,0.536301,-9.476251,0.505177,-0.217866,3.322997,0.079650
1280000,0.703895,-9.437943,0.392649,-0.767484,4.101623,0.140719
1284000,0.691924,-9.375694,0.299275,-1.057560,5.536737,0.217055
1288000,0.706290,-9.315839,0.134075,-2.110996,6.315363,0.110184
1292000,0.758962,-9.265560,-0.081403,-3.317102,6.590173,-0.073022
1296000,0.675165,-9.236830,0.016759,-4.965958,5.689409,-0.042487
1300000,0.670376,-9.299079,0.134075,-5.759851,5.002387,-0.378365
1304000,0.823605,-9.294291,0.234632,-6.340003,3.506203,-0.531037
1308000,0.861913,-9.344569,0.462081,-6.828553,3.353531,-1.019587
1312000,0.842759,-9.327810,0.478840,-7.164431,3.277195,-1.599739
1316000,0.746991,-9.375694,0.574608,-6.950690,2.361165,-1.767678
1320000,0.708684,-9.334992,0.730232,-6.569011,1.735211,-2.210426
1324000,0.737414,-9.402030,0.794875,-6.126263,1.643608,-2.225693
1328000,0.732626,-9.447520,0.876278,-5.576645,1.933684,-2.164625
1332000,0.780510,-9.528923,0.972046,-4.782751,2.345898,-2.195159
1336000,0.682347,-9.476251,0.900220,-3.958324,2.330631,-2.042487
1340000,0.691924,-9.560047,0.909797,-3.103362,2.437501,-2.103556
1344000,0.687136,-9.483433,1.096544,-2.340003,2.330631,-2.027220
1348000,0.744597,-9.531317,1.130063,-1.546110,2.345898,-2.225693
1352000,0.746991,-9.524135,0.984017,-0.752217,2.666508,-2.134090
1356000,0.672771,-9.548077,0.871489,-0.248400,2.987119,-2.195159
1360000,0.660800,-9.600749,0.964863,0.301218,3.185592,-2.088289
1364000,0.567426,-9.619903,0.818817,0.835569,3.307730,-1.813480
1368000,0.584185,-9.622296,0.766145,1.156180,2.864982,-1.538671
1372000,0.483629,-9.648633,0.826000,1.537859,2.727577,-1.263861
1376000,0.459687,-9.653421,0.794875,1.904272,2.391699,-0.683709
1380000,0.440533,-9.696517,0.811634,2.591295,2.193226,-0.363098
1384000,0.395043,-9.684546,0.718261,3.095111,2.529104,0.339192
1388000,0.368707,-9.540894,0.581791,2.911905,3.597806,1.026215
1392000,0.433351,-9.634268,0.454898,2.514959,3.765745,1.606368
1396000,0.617704,-9.607931,0.361524,2.011142,3.719944,1.682703
1400000,0.670376,-9.493010,0.225055,1.659997,3.109257,1.453696
1404000,0.797269,-9.483433,0.167594,1.339386,2.941318,1.301024
1408000,0.897826,-9.478644,-0.088585,0.591295,2.895516,0.659803
1412000,0.928950,-9.442732,-0.150835,-0.446873,2.544371,-0.164625
1416000,0.928950,-9.334992,-0.272939,-2.691148,2.223760,-1.126457
1420000,0.823605,-9.344569,-0.134075,-4.492675,1.384066,-2.011953
1424000,0.744597,-9.402030,0.002394,-5.591911,-0.295324,-2.821113
1428000,0.751779,-9.418790,0.378284,-6.599545,-1.593034,-3.798213
1432000,0.811634,-9.380483,0.430956,-6.523210,-1.470896,-4.286762
1436000,0.603339,-9.387665,0.809240,-6.416339,-1.684637,-5.218060
1440000,0.715866,-9.502586,0.976834,-6.126263,-1.699904,-5.859281
1444000,0.509965,-9.612720,1.134852,-5.179698,0.223760,-5.889815
1448000,0.476446,-9.540894,1.328782,-4.324736,-0.661736,-6.240961
1452000,0.421380,-9.646238,1.414973,-2.462140,0.147424,-6.439434
1456000,0.292093,-9.703699,1.484405,-0.920156,0.910783,-6.347831
1460000,0.342371,-9.758766,1.426944,0.927172,1.811547,-5.935617
1464000,0.392649,-9.698911,1.350330,2.392821,2.834447,-6.011953
1468000,0.380678,-9.679757,1.113304,3.751600,2.971852,-6.240961
1472000,0.471658,-9.653421,0.782904,4.408089,3.643608,-6.134090
1476000,0.442927,-9.684546,0.577003,4.576027,3.765745,-6.011953
1480000,0.366313,-9.694122,0.502782,4.438623,3.017654,-6.134090
1484000,0.397437,-9.643845,0.466869,3.934806,3.002386,-5.981419
1488000,0.318429,-9.662998,0.325611,3.278317,2.620707,-5.844014
1492000,0.265756,-9.636662,0.380678,2.545493,1.796279,-5.889815
1496000,0.270545,-9.550470,0.270545,2.270684,0.468035,-5.782945
1500000,0.189142,-9.655815,0.184354,1.965340,-0.890743,-5.569205
1504000,0.174777,-9.641450,0.251391,1.308852,-1.425095,-5.218060
1508000,0.208296,-9.662998,0.155623,0.682898,-1.715171,-4.729510
1512000,0.162806,-9.682152,0.241814,0.163814,-2.677003,-4.332564
1516000,0.272939,-9.720459,0.373495,-0.416339,-2.386927,-4.225693
1520000,0.316035,-9.725247,0.474052,-0.721682,-1.257156,-3.752411
1524000,0.280122,-9.753978,0.529119,-0.569010,-0.738072,-3.370732
1528000,0.294487,-9.758766,0.591368,-0.614812,-1.073950,-2.866915
1532000,0.179565,-9.777920,0.699107,-0.004125,-1.058682,-2.332564
1536000,0.143652,-9.809045,0.725443,0.408088,-0.860209,-1.966151
1540000,0.392649,-9.823410,0.694318,0.850837,0.345898,-1.202793
1544000,0.196325,-9.763555,0.684742,1.110379,0.681776,-0.943251
1548000,0.196325,-9.758766,0.670376,1.339386,0.620707,-0.011953
1552000,0.263362,-9.742006,0.677559,1.308852,0.590173,0.384994
1556000,0.328006,-9.591172,0.696713,1.415722,0.712310,0.812474
1560000,0.351948,-9.629479,0.610521,1.553127,0.910783,1.056749
1564000,0.308852,-9.583989,0.390255,1.293585,1.032921,1.499497
1568000,0.308852,-9.569624,0.502782,1.278317,1.200860,1.881177
1572000,0.337582,-9.521740,0.555455,0.911905,1.231394,2.308658
1576000,0.328006,-9.497798,0.433351,1.186714,0.758111,2.827742
1580000,0.435745,-9.469068,0.316035,1.247783,-0.203721,3.026215
1584000,0.577003,-9.397242,0.282516,0.805035,0.208493,3.026215
1588000,0.677559,-9.344569,0.201113,-0.126262,0.223760,2.827742
1592000,0.682347,-9.394848,0.258574,-0.675881,0.712310,2.781940
1596000,0.751779,-9.380483,0.119710,-1.179698,0.559638,2.614001
1600000,0.696713,-9.346964,0.301669,-1.729316,-0.173186,2.339192
1604000,0.816423,-9.409213,0.304064,-2.141530,-0.280056,1.713238
1608000,0.888249,-9.478644,0.478840,-2.156797,-0.722805,1.316291
1612000,0.794875,-9.512163,0.543484,-2.004125,-1.440362,0.736139
1616000,0.739808,-9.504981,0.694318,-1.301835,-1.669369,0.446062
1620000,0.797269,-9.504981,0.723049,-0.904888,-2.142652,0.033849
1624000,0.770933,-9.579201,0.754174,-0.401072,-2.341125,-0.149358
1628000,0.644040,-9.588778,0.905008,0.484424,-2.524331,-0.256228
1632000,0.672771,-9.598354,0.814029,0.957707,-2.356392,-0.347831
1636000,0.790087,-9.607931,0.761356,2.041676,-1.822041,-0.729510
1640000,0.746991,-9.569624,0.687136,2.041676,-0.615934,-0.637907
1644000,0.713472,-9.504981,0.677559,2.285951,0.025287,-0.515770
1648000,0.708684,-9.579201,0.531513,2.499691,0.971852,-0.485235
1652000,0.610521,-9.502586,0.383072,2.224883,1.032921,-0.393632
1656000,0.663194,-9.509769,0.248997,1.614195,1.338264,-0.027220
1660000,0.588974,-9.485827,0.275333,1.125646,2.620707,0.171253
1664000,0.509965,-9.433155,0.349553,0.713432,2.926050,0.675070
1668000,0.509965,-9.459491,0.284910,0.530226,3.460402,1.102551
1672000,0.538695,-9.457097,0.251391,0.163814,4.177959,1.407894
1676000,0.672771,-9.452309,0.263362,-0.217866,4.483303,1.545299
1680000,0.624887,-9.459491,0.160412,-0.889621,4.177959,1.514765
1684000,0.627281,-9.476251,0.167594,-1.210232,4.086356,1.804841
1688000,0.684742,-9.507375,0.193930,-1.485041,3.506203,1.346826
1692000,0.627281,-9.586384,0.248997,-1.652980,3.063455,1.346826
1696000,0.684742,-9.610326,0.241814,-1.759850,2.681776,1.148352
1700000,0.677559,-9.560047,0.275333,-2.126262,1.842081,0.873543
1704000,0.663194,-9.536105,0.380678,-2.416339,0.819180,0.736139
1708000,0.667982,-9.651027,0.550666,-2.324736,0.300096,0.720871
1712000,0.689530,-9.643845,0.533907,-2.217866,-0.203721,0.644536
1716000,0.639252,-9.627085,0.696713,-1.851454,-0.631201,0.476597
1720000,0.605733,-9.701305,0.646434,-1.179698,-1.257156,0.583467
1724000,0.617704,-9.703699,0.670376,-0.782751,-0.783873,0.705604
1728000,0.629675,-9.643845,0.605733,-0.569010,-0.081583,1.194154
1732000,0.632069,-9.686940,0.497994,-0.309469,0.635974,1.468963
1736000,0.648829,-9.710882,0.569820,-0.431606,1.200860,1.697971
1740000,0.610521,-9.595961,0.651223,-0.370538,1.872615,1.835375
1744000,0.701501,-9.572019,0.538695,-0.324736,2.376432,1.911711
1748000,0.758962,-9.617508,0.500388,-0.248400,2.422234,2.064383
1752000,0.763750,-9.567230,0.672771,-0.065194,2.177959,2.049116
1756000,0.701501,-9.574412,0.646434,0.453890,2.025287,2.003314
1760000,0.761356,-9.605537,0.593762,0.728699,2.483302,2.033848
1764000,0.804452,-9.615114,0.435745,0.560760,2.116890,1.697971
1768000,0.835576,-9.605537,0.433351,0.392821,1.842081,1.316291
1772000,0.802058,-9.612720,0.550666,0.377554,1.567272,0.797207
1776000,0.823605,-9.581595,0.648829,0.560760,0.742844,0.568200
1780000,0.761356,-9.627085,0.430956,0.942440,1.063455,0.171253
1784000,0.809240,-9.694122,0.392649,1.553127,0.727577,0.110184
1788000,0.782904,-9.648633,0.299275,1.461524,1.735211,-0.118823
1792000,0.548272,-9.643845,0.095768,0.514959,1.918417,-0.317297
1796000,0.581791,-9.622296,0.069432,-0.172064,1.765745,-0.164625
1800000,0.440533,-9.722853,0.136469,-0.736950,1.811547,-0.149358
1804000,0.471658,-9.682152,0.083797,-1.179698,1.872615,0.476597
1808000,0.407014,-9.710882,0.153229,-1.866720,2.376432,0.781940
1812000,0.359130,-9.701305,0.055067,-2.614812,2.330631,0.873543
1816000,0.363919,-9.725247,0.184354,-2.904888,2.483302,1.209421
1820000,0.299275,-9.730036,0.253785,-3.194965,2.223760,1.514765
1824000,0.277727,-9.667787,0.217872,-3.362904,2.025287,1.728505
1828000,0.277727,-9.758766,0.332794,-3.561377,1.826814,2.293390
1832000,0.337582,-9.725247,0.337582,-3.103362,2.177959,2.415528
1836000,0.407014,-9.677363,0.526724,-2.950690,2.361165,2.843009
1840000,0.442927,-9.765948,0.505177,-2.935423,2.697043,2.736139
1844000,0.560243,-9.691729,0.593762,-2.614812,2.758112,2.552932
1848000,0.620098,-9.758766,0.548272,-2.446873,3.002386,2.308658
1852000,0.641646,-9.773131,0.646434,-1.622446,2.926050,1.850642
1856000,0.735020,-9.730036,0.687136,-0.843820,2.513837,1.285757
1860000,0.656011,-9.710882,0.634463,-0.019392,2.529104,0.812474
1864000,0.696713,-9.732430,0.486023,0.591295,2.422234,0.293391
1868000,0.675165,-9.797073,0.493206,0.728699,1.643608,-0.760045
1872000,0.823605,-9.758766,0.356736,0.835569,1.719944,-1.126457
1876000,0.766145,-9.706094,0.248997,0.423356,1.368798,-2.164625
1880000,0.572214,-9.698911,0.241814,-0.004125,0.605440,-2.469968
1884000,0.428562,-9.713276,0.268151,-0.477408,-0.112117,-2.744777
1888000,0.464475,-9.739613,0.258574,-0.569010,-0.677003,-3.111190
1892000,0.476446,-9.720459,0.225055,-0.935423,-1.104484,-2.912716
1896000,0.423774,-9.734824,0.220267,-1.286568,-1.272423,-2.973785
1900000,0.418985,-9.684546,0.184354,-1.729316,-0.447995,-2.805846
1904000,0.402226,-9.713276,0.347159,-2.217866,0.162692,-2.073022
1908000,0.351948,-9.770737,0.430956,-2.172064,0.635974,-1.706609
1912000,0.351948,-9.753978,0.622492,-2.630080,0.864982,-1.065388
1916000,0.418985,-9.809045,0.579397,-2.782751,1.887883,-0.179892
1920000,0.351948,-9.768343,0.725443,-2.462140,2.590173,0.446062
1924000,0.457293,-9.821015,1.007959,-1.637713,3.109257,1.072016
1928000,0.409408,-9.744401,0.933739,-1.027026,3.567272,1.530032
1932000,0.519542,-9.751583,0.840365,-0.798018,4.132157,1.774307
1936000,0.462081,-9.751583,0.895431,-0.340003,4.574905,2.003314
1940000,0.629675,-9.686940,0.902614,0.285951,4.590173,1.911711
1944000,0.636858,-9.710882,0.948104,0.911905,4.544371,1.774307
1948000,0.715866,-9.684546,0.861913,1.461524,4.620707,1.499497
1952000,0.746991,-9.607931,0.842759,2.026409,4.849715,1.117818
1956000,0.895431,-9.672575,0.802058,2.545493,4.895516,0.323925
1960000,0.950498,-9.639056,0.684742,3.324119,4.483303,-0.149358
1964000,0.715866,-9.662998,0.656011,3.858470,3.490936,-0.836380
1968000,0.763750,-9.593566,0.538695,4.026409,2.971852,-1.431800
1972000,0.694318,-9.560047,0.457293,3.889004,2.452768,-1.981419
1976000,0.794875,-9.598354,0.404620,3.766867,1.689409,-2.271495
1980000,0.679953,-9.622296,0.392649,3.843203,0.773379,-2.622640
1984000,0.612916,-9.591172,0.502782,3.721066,-0.203721,-2.927984
1988000,0.507571,-9.648633,0.318429,3.354653,-0.829675,-3.065388
1992000,0.462081,-9.653421,0.313640,2.881371,-1.287690,-2.744777
1996000,0.478840,-9.588778,0.258574,2.056943,-0.860209,-2.439434
