time_us,ax,ay,az,gx,gy,gz
0,-0.186748,-0.107739,8.738836,-1.469774,0.605440,-1.202793
4000,-0.265756,-0.100556,8.621520,-1.591912,0.926050,-1.050121
8000,-0.280122,-0.160412,8.669404,-1.622446,1.139791,-0.775312
12000,-0.260968,-0.153229,8.640674,-1.530843,1.292463,-0.302029
16000,-0.246603,-0.105345,8.626308,-2.110996,0.910783,-0.393632
20000,-0.282516,-0.134075,8.616732,-2.599545,0.315363,-0.408900
24000,-0.272939,-0.124498,8.652645,-3.133896,-0.341125,-0.332564
28000,-0.320823,-0.040701,8.686164,-3.423972,-1.104484,-0.057755
32000,-0.256180,-0.162806,8.690952,-3.591912,-1.699904,-0.256228
36000,-0.292093,-0.150835,8.693346,-3.332370,-1.806774,0.094917
40000,-0.292093,-0.098162,8.667010,-3.332370,-1.760972,0.140719
44000,-0.354342,-0.146046,8.712500,-3.607178,-1.669369,0.262856
48000,-0.320823,-0.119710,8.767567,-3.820919,-1.623568,0.247589
52000,-0.268151,-0.131681,8.825027,-3.652980,-0.783873,0.537665
56000,-0.251391,-0.131681,8.865729,-3.912522,-0.478530,0.446062
60000,-0.251391,-0.064643,8.932767,-3.820919,0.208493,0.507131
64000,-0.294487,-0.067038,8.959103,-3.622446,0.788646,0.797207
68000,-0.277727,-0.169988,8.999804,-3.256034,1.567272,0.888810
72000,-0.316035,-0.196325,9.153033,-3.164430,2.269562,1.010948
76000,-0.248997,-0.146046,9.169792,-2.859087,2.544371,0.843009
80000,-0.172383,-0.102951,9.193734,-2.538476,2.620707,0.797207
84000,-0.160412,-0.138864,9.124303,-2.248400,2.895516,0.537665
88000,-0.203507,-0.177171,9.102755,-1.881988,2.620707,0.354459
92000,-0.239420,-0.165200,9.028535,-1.332370,2.162692,0.033849
96000,-0.253785,-0.179565,9.165004,-1.011759,1.994753,0.155986
100000,-0.234632,-0.232238,9.208099,-0.859087,2.574905,0.186520
104000,-0.253785,-0.179565,9.047688,-0.278934,2.345898,0.598734
108000,-0.258574,-0.160412,8.935161,-0.156797,2.406966,0.644536
112000,-0.141258,-0.167594,9.009381,-0.156797,3.658875,0.781940
116000,-0.174777,-0.179565,8.956709,-0.065194,4.941318,0.781940
120000,-0.067038,-0.076614,8.971074,-0.324736,6.315363,0.965146
124000,0.067038,-0.093374,8.748413,-0.294202,7.368799,0.965146
128000,-0.074220,-0.076614,8.719683,-0.645346,8.025287,1.072016
132000,-0.076614,-0.117316,8.690952,-1.042293,8.437500,0.705604
136000,-0.035913,-0.079009,8.662222,-1.240766,8.452767,0.659803
140000,-0.071826,-0.062249,8.590396,-1.378171,7.796279,0.690337
144000,-0.028730,-0.047884,8.650250,-1.775118,6.620707,0.598734
148000,-0.098162,-0.035913,8.597578,-2.187331,6.635974,0.446062
152000,-0.057461,-0.067038,8.564059,-2.523209,5.429867,0.232322
156000,-0.011971,-0.040701,8.621520,-2.965957,5.429867,0.079650
160000,-0.090980,-0.081403,8.590396,-3.515576,5.139791,0.018581
164000,-0.086191,-0.090980,8.564059,-3.714049,4.559639,-0.195159
168000,-0.009577,-0.146046,8.506598,-3.943056,4.071089,-0.027220
172000,-0.093374,-0.105345,8.525752,-4.492675,4.376432,0.033849
176000,-0.079009,-0.105345,8.437167,-5.072827,5.368799,0.232322
180000,-0.098162,-0.124498,8.492233,-5.652981,6.101623,0.400261
184000,0.033519,-0.148441,8.492233,-6.309469,6.758111,0.232322
188000,0.057461,-0.186748,8.461109,-7.027026,7.124524,0.186520
192000,0.052672,-0.227449,8.540117,-7.072827,7.261929,-0.073022
196000,0.019154,-0.189142,8.554482,-7.271301,6.315363,-0.500503
200000,-0.031125,-0.241814,8.449138,-7.637713,5.582539,-0.836380
204000,-0.107739,-0.239420,8.401254,-7.775118,5.155058,-1.050121
208000,-0.129287,-0.217872,8.492233,-8.263667,4.468035,-1.279129
212000,-0.189142,-0.265756,8.681376,-8.645347,3.674142,-1.385999
216000,-0.160412,-0.251391,8.518570,-8.523210,2.971852,-1.370732
220000,-0.203507,-0.229843,8.525752,-8.370538,1.658875,-1.263861
224000,-0.234632,-0.304064,8.530540,-8.660614,1.445134,-0.882182
228000,-0.196325,-0.160412,8.508993,-9.683515,0.697043,-0.897449
232000,-0.043096,-0.227449,8.382100,-9.561378,1.185592,-0.973785
236000,-0.023942,-0.124498,8.422802,-10.523210,2.544371,-0.989052
240000,-0.031125,-0.093374,8.233660,-11.775118,3.582539,-1.019587
244000,-0.076614,-0.146046,8.106767,-13.607179,3.903150,-1.156991
248000,0.016759,-0.074220,8.075643,-15.317103,4.132157,-1.584472
252000,-0.028730,-0.028730,7.908048,-17.607178,4.223761,-1.737144
256000,0.059855,-0.062249,8.018182,-19.408705,4.284829,-1.859281
260000,0.069432,-0.038307,8.130709,-21.088095,5.582539,-2.332564
264000,0.057461,-0.102951,8.178593,-22.324736,5.903150,-2.729510
268000,0.011971,-0.081403,8.049306,-24.049927,6.834447,-3.172258
272000,0.004788,-0.047884,7.726089,-26.798018,8.437500,-3.569205
276000,-0.153229,-0.083797,7.599196,-29.897255,8.697042,-3.981419
280000,-0.229843,-0.052672,7.472303,-33.256031,8.483302,-4.363098
284000,-0.220267,-0.138864,7.371747,-37.057560,7.674142,-4.668441
288000,-0.325611,-0.155623,7.060501,-41.469772,7.185593,-5.141724
292000,-0.390255,-0.292093,6.830657,-46.340004,6.025287,-5.752411
296000,-0.495600,-0.201113,6.538565,-51.225498,5.307730,-6.286762
300000,-0.553061,-0.344765,6.466739,-56.767483,5.307730,-6.393632
304000,-0.629675,-0.387861,6.074090,-63.133896,4.345898,-6.790579
308000,-0.596156,-0.397437,5.856217,-69.881989,2.086356,-7.385999
312000,-0.651223,-0.483629,5.564125,-76.950691,0.223760,-7.630273
316000,-0.675165,-0.521936,5.044583,-85.378174,-3.287690,-8.286762
320000,-0.687136,-0.703895,4.805163,-95.194962,-6.463263,-8.561572
324000,-0.691924,-0.684742,4.592079,-105.332367,-9.135018,-9.279129
328000,-0.826000,-0.816423,4.247314,-115.729317,-15.226622,-10.317297
332000,-0.816423,-0.928950,4.328717,-126.202599,-17.989981,-9.385999
336000,-0.699107,-0.921768,4.381389,-136.935425,-16.768606,-6.912716
340000,-0.019154,-0.981623,4.326323,-147.851456,-16.035782,-6.622640
344000,0.531513,-1.103727,4.613626,-157.454514,-15.852576,-7.355464
348000,0.945710,-1.271321,4.788404,-165.088104,-13.486164,-8.698977
352000,0.967257,-1.383849,4.977545,-172.034668,-14.005248,-11.462335
356000,1.065420,-1.565808,5.030218,-178.782761,-13.043416,-13.706610
360000,1.113304,-1.807622,5.691018,-184.065201,-7.654102,-15.126457
364000,1.259350,-2.106898,5.932832,-186.569016,-0.203721,-16.240961
368000,1.228225,-2.250550,6.095637,-189.683517,8.864982,-17.004318
372000,0.869095,-2.442086,5.576096,-193.546112,12.697042,-18.683708
376000,0.526724,-2.698265,4.924873,-199.103363,16.437500,-20.011953
380000,0.210690,-2.966416,4.735731,-205.179703,16.162691,-21.034853
384000,0.088585,-3.196259,4.563348,-212.462143,17.597805,-21.584471
388000,-0.294487,-3.481169,4.651934,-219.210236,18.239027,-21.828747
392000,-0.502782,-3.775656,4.534618,-224.752228,19.109257,-20.897449
396000,-0.653617,-4.053383,4.481946,-229.378174,20.300097,-19.447067
400000,-0.849942,-4.340688,4.438850,-233.469788,20.254293,-18.149357
404000,-0.945710,-4.639963,4.065354,-238.187332,17.552004,-16.943251
408000,-1.036689,-4.867412,3.998317,-243.378174,14.758111,-15.401266
412000,-1.357512,-5.173870,3.675100,-249.057571,9.093989,-13.813480
416000,-1.213860,-5.456386,3.435679,-254.981216,3.368799,-12.134090
420000,-1.395820,-5.671864,2.937685,-262.248383,-5.730438,-11.218060
424000,-1.259350,-5.985504,2.782062,-269.072815,-12.997614,-9.080656
428000,-1.355118,-6.162675,2.540248,-277.225494,-22.875477,-7.691342
432000,-1.063026,-6.490681,2.317587,-284.172058,-31.822042,-6.225693
436000,-0.871489,-6.835446,2.152387,-291.637695,-36.997616,-5.385999
440000,-0.572214,-7.024588,1.932121,-298.996490,-40.967079,-4.469968
444000,-0.462081,-7.326257,1.946486,-305.668243,-43.119751,-3.187526
448000,-0.191536,-7.613562,1.982399,-312.019379,-47.531963,-2.408900
452000,0.026336,-7.939173,2.039860,-317.683502,-51.440361,-1.950884
456000,0.246603,-8.303091,2.171541,-323.530823,-55.394562,-1.599739
460000,0.481235,-8.552089,2.102109,-329.042297,-57.577766,-1.844014
464000,0.727837,-8.925584,2.477999,-333.515564,-59.547234,-1.630274
468000,0.500388,-9.157822,2.370260,-337.317108,-61.959446,-1.599739
472000,0.572214,-9.660604,2.410961,-339.240753,-63.623569,-0.607373
476000,0.536301,-9.998186,2.427721,-341.607178,-65.104477,-0.088289
480000,0.457293,-10.216059,2.070984,-344.233124,-66.096848,1.148352
484000,0.574608,-10.570400,1.831564,-346.553741,-67.119751,1.713238
488000,0.497994,-10.874464,1.965640,-349.423950,-69.165550,2.049116
492000,0.414197,-11.221623,2.054225,-351.301819,-70.890739,2.766673
496000,0.418985,-11.456255,2.161964,-352.538483,-73.470894,3.728505
500000,0.351948,-11.664551,2.353500,-352.965942,-77.822037,4.568200
504000,0.284910,-11.884817,2.880225,-352.385803,-81.715164,5.713238
508000,0.402226,-12.145785,3.129222,-351.103363,-86.005241,7.056749
512000,0.478840,-12.310986,3.390190,-348.339996,-86.997612,8.491863
516000,0.526724,-12.445061,3.378219,-346.309448,-88.753334,9.591100
520000,0.708684,-12.461820,3.359065,-345.988861,-87.531960,10.354459
524000,0.648829,-12.665327,3.476381,-345.714050,-84.264786,11.575833
528000,0.699107,-12.631808,3.818752,-345.530823,-82.661736,12.720871
532000,0.981623,-12.825739,4.386178,-344.095734,-78.661736,13.377359
536000,1.106121,-12.880805,4.831499,-341.393433,-73.364021,13.820107
540000,0.981623,-12.943054,5.125986,-338.523193,-66.493790,14.522398
544000,1.197101,-13.168109,5.398925,-334.904877,-58.402195,14.614001
548000,1.252167,-13.251906,5.956774,-330.752197,-49.486164,14.354459
552000,1.180341,-13.280637,6.356606,-325.927795,-40.738071,14.140718
556000,0.785298,-13.371616,6.641516,-320.507935,-32.768608,14.217054
560000,0.081403,-13.572729,7.189788,-314.294189,-28.829676,15.178886
564000,-0.476446,-13.754689,8.013393,-304.385803,-26.997614,17.072018
568000,-0.543484,-13.965379,8.729259,-292.813263,-25.043415,20.217054
572000,-1.070208,-14.058752,9.282320,-278.462128,-21.883110,24.125452
576000,-1.307234,-14.058752,9.720459,-262.675873,-24.447996,27.575834
580000,-1.462857,-14.049175,10.058042,-245.912537,-26.234255,31.713238
584000,-1.491588,-13.934254,10.584765,-229.011765,-24.218988,36.125454
588000,-1.400608,-13.864822,10.601525,-211.317108,-23.623568,40.232323
592000,-1.221043,-13.709199,10.450690,-194.217865,-21.623568,44.675072
596000,-1.101333,-13.510480,10.053253,-177.836197,-20.112118,48.675072
600000,-0.823605,-13.354857,9.430760,-161.652985,-18.310591,52.568199
604000,-0.486023,-12.988544,8.774749,-147.271301,-16.447996,55.194153
608000,-0.043096,-12.670115,8.025364,-134.553757,-14.218988,57.041481
612000,0.428562,-12.236765,6.981492,-122.431602,-11.654102,58.537666
616000,0.756568,-11.786655,6.026206,-112.492676,-9.104485,58.751408
620000,1.053449,-11.506534,4.874595,-104.538475,-7.623568,58.125454
624000,1.321599,-10.982203,3.730166,-98.401070,-4.554865,57.102551
628000,1.623269,-10.742783,2.734178,-94.080460,-3.486163,54.537666
632000,1.113304,-10.443508,1.910573,-92.843819,-4.646469,50.415527
636000,2.817975,-10.002975,1.460463,-89.576645,-0.005247,46.720871
640000,1.922544,-9.974244,0.644040,-88.309471,-2.310591,42.400261
644000,2.111686,-9.773131,0.435745,-89.637711,-8.478530,37.224689
648000,1.934515,-9.921572,0.624887,-88.507942,-9.577766,32.568199
652000,1.680730,-9.861717,0.689530,-86.675880,-14.402194,27.499498
656000,1.563414,-9.933543,0.938527,-84.110992,-15.730438,23.362093
660000,1.395820,-10.046070,1.345541,-80.431602,-14.860209,19.911713
664000,1.053449,-10.086772,1.474828,-76.172066,-18.173187,16.766674
668000,0.837971,-10.232818,1.807622,-71.332367,-18.677004,14.323924
672000,0.677559,-10.359711,2.233790,-66.767487,-19.150286,12.675070
676000,0.483629,-10.496181,2.554613,-60.599541,-13.959446,12.079650
680000,0.124498,-10.611102,2.731784,-54.172062,-9.333492,11.774306
684000,0.162806,-10.726024,2.734178,-47.423973,-6.417461,11.926978
688000,-0.064643,-10.776301,2.561796,-40.584278,-3.226621,12.155986
692000,-0.268151,-10.790668,2.355895,-34.569012,-2.463263,12.751406
696000,-0.203507,-10.783484,2.154782,-29.164429,-1.135018,13.789574
700000,-0.213084,-10.845734,1.874660,-25.271299,-0.386927,14.843008
704000,-0.031125,-10.814610,1.640028,-22.172064,0.040554,15.209421
708000,-0.119710,-10.730812,1.381454,-19.408705,0.101623,15.789573
712000,0.021548,-10.627861,0.960075,-17.149162,0.269562,16.446062
716000,0.035913,-10.575189,0.701501,-14.798018,0.422234,17.072018
720000,-0.093374,-10.369287,0.205901,-14.340003,-3.028148,17.194155
724000,0.213084,-10.309433,-0.038307,-13.576644,-2.600667,17.575834
728000,0.351948,-10.235212,-0.349553,-13.881988,-2.753339,17.209421
732000,0.622492,-10.232818,-0.493206,-14.462140,-3.302957,16.384995
736000,0.605733,-10.189722,-0.500388,-15.408706,-3.531965,15.224688
740000,0.713472,-10.084377,-0.517148,-16.569010,-3.959446,14.064383
744000,0.493206,-10.101137,-0.550666,-17.576643,-4.371659,12.690337
748000,0.588974,-10.098742,-0.608127,-18.248400,-3.928911,11.560566
752000,0.730232,-10.024523,-0.675165,-17.988857,-3.776240,10.018581
756000,0.509965,-9.998186,-0.718261,-17.698780,-3.623568,8.965146
760000,0.418985,-9.995792,-0.720655,-17.225498,-4.524331,7.774307
764000,0.471658,-9.976639,-0.646434,-16.782751,-4.967079,6.384994
768000,0.416591,-9.947908,-0.529119,-16.569010,-4.707537,5.270490
772000,0.421380,-9.988609,-0.371101,-15.759851,-4.539598,3.591101
776000,0.320823,-9.998186,-0.280122,-14.019393,-4.615934,2.384994
780000,0.086191,-10.024523,-0.356736,-12.843820,-5.180820,1.591100
784000,-0.052672,-10.046070,-0.138864,-11.546110,-6.142652,0.843009
788000,-0.067038,-9.976639,0.007183,-9.790385,-5.577766,0.171253
792000,-0.090980,-10.048465,0.172383,-7.423973,-3.593034,0.323925
796000,-0.296881,-9.959879,0.210690,-4.782751,-1.257156,0.507131
800000,-0.351948,-10.014946,0.193930,-2.599545,0.361165,1.163620
804000,-0.486023,-9.921572,0.019154,-0.233133,2.300096,1.865910
808000,-0.553061,-9.907207,0.126893,2.118012,3.735211,2.812474
812000,-0.648829,-9.773131,0.047884,3.950073,4.697043,3.743773
816000,-0.612916,-9.789890,-0.098162,6.637096,6.116890,5.087284
820000,-0.641646,-9.746795,-0.462081,7.904272,6.468035,6.232322
824000,-0.567426,-9.674969,-0.653617,7.858470,7.032921,6.843009
828000,-0.478840,-9.555259,-0.811634,7.034043,7.796279,7.545299
832000,-0.320823,-9.504981,-0.869095,5.965341,7.338264,7.972780
836000,-0.160412,-9.406818,-0.993594,5.446257,7.460402,7.957512
840000,-0.112527,-9.437943,-1.280898,4.698165,7.231394,7.835375
844000,-0.165200,-9.349358,-1.376666,3.217249,5.292463,7.285757
848000,-0.083797,-9.334992,-1.455675,1.446256,3.918417,6.400261
852000,-0.040701,-9.210494,-1.280898,0.102745,2.834447,5.865910
856000,0.074220,-9.200917,-1.283292,-0.798018,1.842081,5.239955
860000,-0.062249,-9.279925,-1.194707,-1.775118,0.803913,4.155986
864000,-0.071826,-9.193734,-1.165976,-2.019392,-0.295324,3.682703
868000,-0.129287,-9.193734,-1.039083,-2.248400,-1.257156,2.919345
872000,-0.079009,-9.200917,-0.905008,-2.217866,-1.745705,2.430795
876000,-0.208296,-9.210494,-0.960075,-2.263667,-2.417461,1.926978
880000,-0.150835,-9.313444,-0.804452,-1.698782,-2.447995,1.102551
884000,-0.282516,-9.346964,-0.751779,-1.500308,-2.753339,0.675070
888000,-0.304064,-9.279925,-0.679953,-0.630080,-2.234255,0.201787
892000,-0.313640,-9.272743,-0.433351,0.469157,-0.890743,0.247589
896000,-0.337582,-9.354146,-0.414197,2.087478,0.498570,0.262856
900000,-0.474052,-9.385271,-0.428562,3.369921,1.200860,0.278123
904000,-0.569820,-9.325416,-0.486023,4.682898,1.322997,0.491864
908000,-0.562637,-9.370906,-0.715866,5.385188,0.819180,0.873543
912000,-0.605733,-9.368511,-0.799663,5.446257,1.368798,1.163620
916000,-0.414197,-9.409213,-0.840365,5.308852,1.689409,1.713238
920000,-0.371101,-9.433155,-0.744597,5.186715,2.849715,2.140719
924000,-0.289698,-9.423578,-0.718261,5.598928,4.559639,2.018581
928000,-0.169988,-9.406818,-0.711078,6.026409,6.697043,2.140719
932000,-0.237026,-9.440337,-0.639252,6.255417,7.979486,1.774307
936000,-0.162806,-9.447520,-0.773327,7.232516,9.124523,1.484230
940000,-0.201113,-9.473856,-0.766145,7.690531,8.880248,1.026215
944000,-0.067038,-9.540894,-0.768539,7.583661,8.956584,0.491864
948000,-0.086191,-9.428367,-0.799663,7.415722,8.086355,-0.088289
952000,-0.016759,-9.504981,-0.703895,7.858470,5.964219,-0.668442
956000,-0.002394,-9.449914,-0.775721,8.056944,5.017653,-1.462335
960000,0.117316,-9.423578,-0.885855,8.118012,5.078722,-2.408900
964000,0.122104,-9.478644,-1.007959,7.934806,5.231394,-3.538671
968000,0.119710,-9.493010,-0.955287,7.843203,4.788646,-4.821113
972000,0.136469,-9.485827,-0.940921,7.476791,4.315363,-5.492869
976000,0.002394,-9.504981,-0.988805,6.911905,3.292463,-6.637907
980000,-0.028730,-9.555259,-1.079785,6.652363,1.964218,-7.095922
984000,-0.229843,-9.622296,-0.907402,6.194348,1.170325,-7.553937
988000,-0.339977,-9.696517,-0.893037,5.904272,0.987119,-7.019587
992000,-0.447716,-9.765948,-0.869095,5.721066,1.322997,-6.668441
996000,-0.507571,-9.742006,-0.821211,5.644730,2.055821,-6.057755
1000000,-0.536301,-9.816227,-0.809240,5.339386,3.109257,-5.126457
1004000,-0.584185,-9.880871,-0.878672,5.064577,3.353531,-4.378365
1008000,-0.574608,-9.897630,-0.845153,4.606562,3.490936,-3.599739
1012000,-0.598550,-9.859323,-0.962469,4.270684,4.147425,-2.469968
1016000,-0.593762,-9.864111,-0.979228,3.461524,4.773379,-1.813480
1020000,-0.548272,-9.926360,-0.888249,2.682898,4.742845,-1.156991
1024000,-0.574608,-9.964667,-0.948104,2.392821,4.529104,-0.347831
1028000,-0.560243,-9.952697,-0.746991,2.072211,3.903150,0.155986
1032000,-0.471658,-9.998186,-0.622492,1.965340,4.773379,0.598734
1036000,-0.440533,-9.940725,-0.500388,2.331753,5.048188,0.965146
1040000,-0.356736,-9.959879,-0.586579,2.682898,4.666509,1.087284
1044000,-0.294487,-9.952697,-0.715866,3.568394,4.468035,0.873543
1048000,-0.277727,-9.902418,-0.565032,3.659997,3.552005,0.705604
1052000,-0.177171,-9.909601,-0.536301,3.644730,3.414600,0.369726
1056000,-0.184354,-9.904813,-0.653617,4.362287,2.590173,0.049116
1060000,-0.141258,-9.871294,-0.596156,4.682898,1.781012,-0.546304
1064000,-0.110133,-9.849746,-0.553061,5.079844,0.926050,-0.851648
1068000,-0.019154,-9.852140,-0.627281,5.568394,0.620707,-1.569205
1072000,-0.035913,-9.861717,-0.758962,5.812669,0.010020,-2.134090
1076000,-0.038307,-9.797073,-0.773327,5.736333,0.391699,-2.363098
1080000,-0.143652,-9.713276,-0.746991,5.690531,0.147424,-2.851648
1084000,-0.215478,-9.734824,-0.782904,5.492058,-0.142652,-3.004319
1088000,-0.294487,-9.773131,-0.857124,5.034043,-0.509064,-2.973785
1092000,-0.272939,-9.727641,-0.785298,4.866104,-0.936545,-2.851648
1096000,-0.294487,-9.701305,-0.651223,4.774501,-1.440362,-2.592106
1100000,-0.323217,-9.691729,-0.404620,5.003509,-1.715171,-2.454701
1104000,-0.344765,-9.727641,-0.507571,5.354653,-1.348759,-1.950884
1108000,-0.301669,-9.763555,-0.557849,5.950073,-0.799140,-1.859281
1112000,-0.263362,-9.746795,-0.641646,5.766867,0.483302,-1.874548
1116000,-0.342371,-9.746795,-0.708684,5.446257,0.910783,-1.447067
1120000,-0.366313,-9.737218,-0.780510,4.621829,0.941318,-1.447067
1124000,-0.335188,-9.674969,-0.608127,4.240149,0.864982,-1.263861
1128000,-0.351948,-9.739613,-0.672771,4.255417,0.666508,-1.492869
1132000,-0.392649,-9.727641,-0.675165,4.545493,0.788646,-1.569205
1136000,-0.435745,-9.725247,-0.665588,4.270684,0.987119,-1.233327
1140000,-0.366313,-9.801862,-0.763750,4.179081,1.628341,-1.187526
1144000,-0.387861,-9.742006,-0.782904,3.430989,1.887883,-1.233327
1148000,-0.383072,-9.823410,-0.787692,3.079844,1.735211,-1.034854
1152000,-0.380678,-9.804255,-0.629675,2.728699,1.368798,-1.050121
1156000,-0.337582,-9.768343,-0.536301,2.667631,1.246661,-1.065388
1160000,-0.294487,-9.761160,-0.481235,3.186715,1.552005,-0.882182
1164000,-0.198719,-9.775525,-0.438139,3.827936,2.422234,-0.744777
1168000,-0.294487,-9.713276,-0.428562,4.637096,2.712310,-0.836380
1172000,-0.256180,-9.689334,-0.608127,4.682898,3.032921,-0.561571
1176000,-0.229843,-9.742006,-0.629675,4.988241,2.773379,-0.408900
1180000,-0.337582,-9.674969,-0.646434,5.263051,2.010020,-0.744777
1184000,-0.244209,-9.677363,-0.598550,5.400455,1.429867,-0.897449
1188000,-0.191536,-9.569624,-0.636858,5.492058,0.910783,-0.790579
1192000,-0.244209,-9.595961,-0.746991,5.446257,0.223760,-1.202793
1196000,-0.205901,-9.514558,-0.701501,5.568394,0.040554,-1.340197
1200000,-0.158017,-9.478644,-0.976834,5.110379,-0.325858,-1.721877
1204000,-0.174777,-9.466674,-0.837971,4.209615,-0.936545,-2.149358
1208000,-0.119710,-9.411607,-0.905008,2.850837,-0.127385,-2.668442
1212000,-0.306458,-9.418790,-0.905008,1.919539,0.345898,-2.317297
1216000,-0.301669,-9.562442,-0.792481,1.782134,-0.234255,-2.760045
1220000,-0.337582,-9.607931,-0.699107,1.659997,-0.493797,-2.607373
1224000,-0.387861,-9.639056,-0.428562,1.339386,-0.341125,-2.668442
1228000,-0.476446,-9.660604,-0.500388,1.751600,-0.081583,-2.195159
1232000,-0.457293,-9.780313,-0.486023,2.118012,0.330631,-1.813480
1236000,-0.454898,-9.864111,-0.349553,2.392821,1.200860,-1.355464
1240000,-0.490811,-9.840169,-0.325611,3.079844,1.307730,-0.989052
1244000,-0.536301,-9.813833,-0.371101,3.278317,1.032921,-0.698976
1248000,-0.483629,-9.888053,-0.586579,3.614195,0.345898,-0.195159
1252000,-0.569820,-9.904813,-0.562637,3.843203,-0.005247,0.232322
1256000,-0.387861,-9.842564,-0.536301,4.163814,0.086356,0.278123
1260000,-0.275333,-9.837775,-0.612916,4.255417,0.147424,0.644536
1264000,-0.361524,-9.811439,-0.646434,4.667631,0.071089,0.568200
1268000,-0.335188,-9.828198,-0.830788,4.667631,-0.264789,0.522398
1272000,-0.335188,-9.785102,-0.845153,4.698165,-0.463263,0.720871
1276000,-0.296881,-9.758766,-1.177947,3.995875,-0.982347,0.736139
1280000,-0.304064,-9.691729,-1.019930,2.850837,-1.455629,0.583467
1284000,-0.306458,-9.706094,-1.034295,1.889004,-2.249522,0.369726
1288000,-0.225055,-9.672575,-0.972046,1.293585,-2.890743,0.201787
1292000,-0.177171,-9.662998,-0.866701,0.759233,-3.180820,0.110184
1296000,-0.227449,-9.684546,-0.897826,-0.004125,-2.982346,-0.011953
1300000,-0.179565,-9.615114,-0.763750,-0.675881,-3.593034,-0.454701
1304000,-0.071826,-9.624691,-0.651223,-1.088094,-3.348759,-0.668442
1308000,-0.033519,-9.646238,-0.426168,-1.149163,-2.371660,-1.156991
1312000,-0.093374,-9.667787,-0.414197,-1.011759,-1.486163,-1.431800
1316000,-0.098162,-9.658210,-0.313640,-0.477408,-0.096850,-1.599739
1320000,-0.174777,-9.648633,-0.359130,0.163814,0.651241,-1.813480
1324000,-0.191536,-9.689334,-0.426168,0.621829,0.803913,-2.073022
1328000,-0.253785,-9.677363,-0.450110,0.927172,0.819180,-2.408900
1332000,-0.217872,-9.710882,-0.402226,1.385188,0.284829,-2.637907
1336000,-0.316035,-9.715671,-0.292093,1.827936,-0.295324,-2.683709
1340000,-0.349553,-9.787497,-0.246603,2.347020,-0.539598,-2.836380
1344000,-0.318429,-9.756371,-0.244209,2.866104,-0.753339,-2.592106
1348000,-0.332794,-9.794679,-0.366313,3.537859,-1.272423,-2.744777
1352000,-0.308852,-9.730036,-0.210690,4.072211,-1.684637,-2.607373
1356000,-0.354342,-9.768343,-0.363919,4.270684,-1.913644,-2.164625
1360000,-0.402226,-9.775525,-0.354342,4.652363,-1.959446,-1.981419
1364000,-0.387861,-9.763555,-0.502782,4.850837,-2.188453,-1.340197
1368000,-0.466869,-9.818622,-0.706290,4.545493,-2.218988,-0.561571
1372000,-0.311246,-9.866506,-0.787692,3.919539,-1.043415,0.186520
1376000,-0.368707,-9.856929,-0.770933,2.667631,0.162692,0.873543
1380000,-0.538695,-9.828198,-0.885855,1.354653,0.513837,1.697971
1384000,-0.474052,-9.804255,-0.814029,0.194348,1.017653,2.614001
1388000,-0.387861,-9.768343,-0.766145,-0.584278,1.200860,3.316291
1392000,-0.335188,-9.706094,-0.780510,-0.965957,1.063455,3.606368
1396000,-0.296881,-9.727641,-0.835576,-1.408705,0.742844,3.728505
1400000,-0.215478,-9.758766,-0.727837,-1.546110,0.605440,3.606368
1404000,-0.141258,-9.670180,-0.509965,-1.301835,0.529104,3.194154
1408000,-0.150835,-9.730036,-0.562637,-1.103362,-0.005247,2.995681
1412000,-0.102951,-9.674969,-0.584185,-0.584278,-0.692270,2.568200
1416000,-0.131681,-9.689334,-0.555455,-0.156797,-1.302957,1.682703
1420000,-0.040701,-9.622296,-0.574608,0.194348,-1.379293,1.530032
1424000,-0.035913,-9.634268,-0.411803,0.576027,-1.699904,0.629268
1428000,0.052672,-9.641450,-0.438139,0.896638,-1.867843,0.049116
1432000,0.052672,-9.622296,-0.421380,1.064577,-2.203721,-0.668442
1436000,-0.004788,-9.605537,-0.471658,1.003508,-2.234255,-1.355464
1440000,-0.095768,-9.615114,-0.344765,1.415722,-2.218988,-1.767678
1444000,-0.141258,-9.629479,-0.409408,1.537859,-1.989980,-2.134090
1448000,-0.136469,-9.636662,-0.442927,1.598928,-1.715171,-2.424167
1452000,-0.122104,-9.667787,-0.399832,1.950073,-1.272423,-2.347831
1456000,-0.167594,-9.698911,-0.306458,2.041676,-0.997614,-2.134090
1460000,-0.241814,-9.746795,-0.450110,2.209615,-0.738072,-2.164625
1464000,-0.328006,-9.689334,-0.569820,2.209615,-0.738072,-1.889816
1468000,-0.339977,-9.720459,-0.428562,1.950073,-1.089217,-1.798213
1472000,-0.383072,-9.703699,-0.339977,2.041676,-0.967079,-1.553938
1476000,-0.466869,-9.765948,-0.383072,2.072211,-1.287690,-1.263861
1480000,-0.387861,-9.720459,-0.356736,2.301218,-1.165553,-1.218060
1484000,-0.361524,-9.703699,-0.450110,2.316485,-0.844942,-0.973785
1488000,-0.428562,-9.739613,-0.514753,2.224883,-0.585400,-0.851648
1492000,-0.457293,-9.715671,-0.672771,2.056943,-0.814408,-0.805846
1496000,-0.533907,-9.761160,-0.524330,1.965340,-0.829675,-0.347831
1500000,-0.545878,-9.734824,-0.682347,2.118012,-0.906011,0.171253
1504000,-0.598550,-9.742006,-0.713472,2.163814,-1.348759,0.781940
1508000,-0.598550,-9.658210,-0.658405,2.224883,-1.058682,1.224688
1512000,-0.514753,-9.689334,-0.735020,2.179081,-0.005247,1.759039
1516000,-0.438139,-9.639056,-0.679953,1.553127,0.895516,2.446062
1520000,-0.435745,-9.627085,-0.768539,1.064577,1.200860,2.614001
1524000,-0.435745,-9.524135,-0.708684,0.682898,1.490936,3.026215
1528000,-0.366313,-9.586384,-0.629675,0.469157,1.704676,3.239955
1532000,-0.359130,-9.560047,-0.507571,0.362287,1.093989,3.423162
1536000,-0.244209,-9.507375,-0.356736,0.484424,0.926050,3.316291
1540000,-0.203507,-9.473856,-0.490811,0.606562,0.971852,3.163620
1544000,-0.167594,-9.483433,-0.553061,0.789768,0.834447,2.690337
1548000,-0.146046,-9.538500,-0.486023,1.079844,0.895516,2.369726
1552000,-0.150835,-9.514558,-0.526724,1.018775,0.941318,1.926978
1556000,-0.129287,-9.445126,-0.560243,1.079844,0.803913,1.453696
1560000,-0.162806,-9.512163,-0.474052,1.247783,0.834447,1.026215
1564000,-0.167594,-9.495404,-0.509965,1.522592,0.468035,0.843009
1568000,-0.205901,-9.504981,-0.591368,1.568394,-0.295324,0.369726
1572000,-0.289698,-9.473856,-0.612916,1.675264,-0.921278,0.049116
1576000,-0.265756,-9.555259,-0.579397,1.553127,-1.318224,0.049116
1580000,-0.227449,-9.500193,-0.588974,1.278317,-1.073950,-0.164625
1584000,-0.268151,-9.593566,-0.622492,1.232516,-0.921278,-0.057755
1588000,-0.189142,-9.526528,-0.648829,1.110379,-1.577766,-0.149358
1592000,-0.213084,-9.586384,-0.667982,0.774501,-1.669369,-0.225693
1596000,-0.248997,-9.615114,-0.770933,0.591295,-2.157919,-0.363098
1600000,-0.155623,-9.586384,-0.703895,0.576027,-2.478530,-0.332564
1604000,-0.251391,-9.667787,-0.708684,-0.080461,-2.600667,-0.317297
1608000,-0.193930,-9.679757,-0.672771,-0.217866,-2.738072,-0.393632
1612000,-0.172383,-9.694122,-0.514753,-0.294202,-2.615934,-0.393632
1616000,-0.191536,-9.739613,-0.390255,-0.278934,-2.509064,-0.225693
1620000,-0.158017,-9.746795,-0.450110,-0.156797,-1.898377,-0.088289
1624000,-0.155623,-9.787497,-0.320823,-0.172064,-1.119751,0.110184
1628000,-0.131681,-9.777920,-0.260968,-0.019392,-0.906011,0.171253
1632000,-0.110133,-9.823410,-0.342371,0.163814,-0.386927,0.018581
1636000,-0.031125,-9.782708,-0.241814,0.591295,-0.218988,0.018581
1640000,-0.033519,-9.816227,-0.256180,0.820302,1.048188,-0.042487
1644000,-0.038307,-9.797073,-0.191536,1.263050,2.345898,-0.011953
1648000,-0.095768,-9.753978,-0.337582,1.492058,2.742844,-0.286762
1652000,-0.100556,-9.720459,-0.392649,1.934806,2.727577,-0.454701
1656000,-0.136469,-9.689334,-0.385466,2.041676,2.284829,-0.561571
1660000,-0.208296,-9.782708,-0.337582,2.392821,2.116890,-0.546304
1664000,-0.126893,-9.789890,-0.450110,2.545493,2.208493,-0.698976
1668000,-0.148441,-9.732430,-0.596156,2.621829,2.284829,-0.958518
1672000,-0.246603,-9.727641,-0.612916,2.499691,2.437501,-1.080655
1676000,-0.246603,-9.739613,-0.579397,2.392821,1.445134,-1.218060
1680000,-0.378284,-9.809045,-0.493206,2.072211,2.040554,-1.431800
1684000,-0.447716,-9.852140,-0.663194,2.026409,1.704676,-1.050121
1688000,-0.572214,-9.864111,-0.706290,1.782134,0.361165,-1.019587
1692000,-0.565032,-9.837775,-0.814029,1.354653,0.116890,-0.515770
1696000,-0.517148,-9.950302,-0.713472,0.789768,0.162692,-0.240961
1700000,-0.500388,-9.809045,-0.905008,0.026409,0.437501,0.430795
1704000,-0.679953,-9.804255,-0.885855,-0.630080,0.529104,0.598734
1708000,-0.667982,-9.871294,-0.864307,-1.439240,0.208493,1.117818
1712000,-0.610521,-9.878476,-0.701501,-1.805652,0.132157,1.774307
1716000,-0.574608,-9.789890,-0.622492,-2.004125,0.956585,1.988047
1720000,-0.423774,-9.780313,-0.462081,-1.576644,1.078722,2.491864
1724000,-0.385466,-9.737218,-0.567426,-1.347636,1.521470,2.751406
1728000,-0.277727,-9.722853,-0.500388,-1.271301,1.658875,2.690337
1732000,-0.287304,-9.627085,-0.577003,-1.362904,1.109257,2.339192
1736000,-0.225055,-9.576807,-0.538695,-1.362904,1.322997,2.094917
1740000,-0.112527,-9.531317,-0.588974,-1.622446,1.322997,1.636902
1744000,-0.038307,-9.605537,-0.521936,-1.378171,1.307730,1.041482
1748000,0.004788,-9.576807,-0.447716,-1.607178,0.849715,0.537665
1752000,0.000000,-9.598354,-0.277727,-1.485041,0.498570,-0.302029
1756000,0.038307,-9.588778,-0.119710,-0.935423,0.345898,-0.775312
1760000,-0.033519,-9.670180,-0.093374,-0.187331,-0.386927,-1.401266
1764000,-0.088585,-9.660604,-0.162806,0.072211,-0.921278,-1.813480
1768000,-0.117316,-9.672575,-0.117316,0.682898,-1.196087,-2.286762
1772000,-0.153229,-9.696517,-0.102951,1.369921,-1.135018,-2.515770
1776000,-0.184354,-9.706094,-0.138864,2.102745,-1.211354,-2.805846
1780000,-0.318429,-9.725247,-0.093374,2.743967,-0.997614,-2.668442
1784000,-0.289698,-9.765948,-0.225055,3.079844,-0.753339,-2.744777
1788000,-0.366313,-9.782708,-0.186748,3.598928,-0.203721,-2.134090
1792000,-0.363919,-9.792285,-0.404620,3.934806,0.116890,-2.118823
1796000,-0.280122,-9.787497,-0.325611,4.347020,0.361165,-2.027220
1800000,-0.366313,-9.734824,-0.418985,4.301219,0.697043,-1.615006
1804000,-0.533907,-9.722853,-0.584185,4.820302,1.032921,-1.279129
1808000,-0.639252,-9.739613,-0.725443,4.728699,0.406966,-0.866915
1812000,-0.591368,-9.646238,-0.761356,4.270684,-0.463263,-0.469968
1816000,-0.562637,-9.730036,-0.775721,3.889004,-0.799140,-0.042487
1820000,-0.557849,-9.655815,-0.861913,3.324119,-1.287690,0.537665
1824000,-0.509965,-9.605537,-0.945710,2.637096,-1.776240,0.766673
1828000,-0.454898,-9.670180,-0.859518,1.934806,-2.341125,1.087284
1832000,-0.512359,-9.684546,-0.847547,0.911905,-3.211354,1.407894
1836000,-0.512359,-9.631873,-0.758962,0.438623,-3.623568,1.575833
1840000,-0.509965,-9.682152,-0.701501,-0.049927,-4.005247,2.079650
1844000,-0.495600,-9.617508,-0.675165,-0.416339,-4.509064,2.384994
1848000,-0.289698,-9.574412,-0.560243,-0.599545,-4.997613,2.568200
1852000,-0.143652,-9.660604,-0.416591,-1.194965,-5.638835,2.293390
1856000,0.002394,-9.710882,-0.356736,-1.210232,-4.035782,2.003314
1860000,0.167594,-9.646238,-0.536301,-1.714049,-0.615934,1.453696
1864000,-0.067038,-9.636662,-0.505177,-2.645346,0.254295,1.102551
1868000,-0.011971,-9.672575,-0.641646,-2.935423,-0.280056,0.446062
1872000,-0.028730,-9.612720,-0.471658,-2.950690,-0.218988,-0.134090
1876000,-0.014365,-9.670180,-0.416591,-2.507942,0.513837,-0.836380
1880000,-0.040701,-9.689334,-0.363919,-2.324736,0.742844,-1.294396
1884000,-0.081403,-9.773131,-0.397437,-2.248400,0.391699,-1.920350
1888000,-0.158017,-9.809045,-0.253785,-1.897255,-0.005247,-2.531037
1892000,-0.253785,-9.856929,-0.265756,-0.996492,-1.440362,-2.439434
1896000,-0.237026,-9.907207,-0.270545,-0.355270,-2.386927,-2.851648
1900000,-0.256180,-9.902418,-0.215478,0.392821,-2.524331,-2.760045
1904000,-0.299275,-9.914390,-0.193930,1.079844,-1.180820,-2.668442
1908000,-0.311246,-9.909601,-0.165200,1.675264,-0.585400,-2.500503
1912000,-0.332794,-9.849746,-0.282516,2.011142,-0.280056,-2.317297
1916000,-0.428562,-9.794679,-0.313640,2.545493,0.590173,-2.011953
1920000,-0.387861,-9.832987,-0.320823,2.972974,1.200860,-1.767678
1924000,-0.344765,-9.758766,-0.375890,3.034043,1.674142,-1.416533
1928000,-0.330400,-9.720459,-0.380678,3.079844,2.697043,-1.370732
1932000,-0.342371,-9.739613,-0.308852,2.820302,3.322997,-0.821113
1936000,-0.385466,-9.696517,-0.356736,2.820302,3.307730,-0.744777
1940000,-0.392649,-9.679757,-0.265756,3.049310,2.941318,-0.485235
1944000,-0.385466,-9.667787,-0.392649,3.003508,2.284829,-0.424167
1948000,-0.239420,-9.595961,-0.478840,3.354653,1.552005,-0.622640
1952000,-0.359130,-9.655815,-0.651223,2.972974,1.246661,-0.729510
1956000,-0.495600,-9.636662,-0.756568,2.881371,0.452768,-0.866915
1960000,-0.368707,-9.655815,-0.687136,2.560760,0.193226,-0.729510
1964000,-0.392649,-9.742006,-0.586579,2.667631,1.170325,-0.744777
1968000,-0.430956,-9.773131,-0.442927,2.911905,1.475669,-0.546304
1972000,-0.332794,-9.789890,-0.395043,3.079844,2.055821,-0.363098
1976000,-0.363919,-9.801862,-0.435745,3.034043,2.620707,-0.103556
1980000,-0.488417,-9.782708,-0.452504,3.385188,2.468035,0.049116
1984000,-0.562637,-9.835381,-0.371101,3.446256,2.406966,0.797207
1988000,-0.598550,-9.854534,-0.306458,3.629463,2.544371,1.163620
1992000,-0.553061,-9.859323,-0.359130,3.843203,2.788646,1.484230
1996000,-0.478840,-9.720459,-0.354342,3.858470,2.864982,1.926978
