time_us,ax,ay,az,gx,gy,gz
0,-0.179565,-0.213084,8.298303,-0.507942,-1.119751,0.003314
4000,-0.304064,-0.167594,8.303091,-1.439240,-1.089217,0.110184
8000,-0.316035,-0.095768,8.283937,-2.263667,-0.509064,0.125452
12000,-0.325611,-0.222661,8.214506,-3.286568,-0.218988,0.430795
16000,-0.318429,-0.232238,8.319851,-4.004126,0.361165,0.827742
20000,-0.344765,-0.165200,8.444349,-4.706415,1.139791,1.224688
24000,-0.237026,-0.153229,8.520964,-5.332370,1.704676,1.301024
28000,-0.215478,-0.205901,8.599973,-4.920156,1.750478,1.453696
32000,-0.284910,-0.184354,8.698134,-4.645347,1.506203,1.591100
36000,-0.186748,-0.210690,8.683769,-4.263667,0.895516,1.377360
40000,-0.248997,-0.244209,8.872911,-3.881988,0.544371,1.667436
44000,-0.205901,-0.239420,8.872911,-3.591912,0.345898,1.575833
48000,-0.215478,-0.241814,8.858546,-2.798018,-0.539598,1.743772
52000,-0.193930,-0.196325,8.860941,-2.416339,-1.730438,1.606368
56000,-0.112527,-0.191536,9.040505,-1.469774,-2.386927,1.377360
60000,-0.107739,-0.167594,9.227253,0.209615,-2.997614,1.148352
64000,-0.047884,-0.160412,9.090784,1.583661,-3.012881,0.827742
68000,-0.134075,-0.119710,8.947132,2.285951,-2.799140,0.873543
72000,0.000000,-0.069432,8.844181,2.240149,-2.051049,0.568200
76000,0.004788,-0.038307,8.796297,2.453890,-1.715171,0.323925
80000,-0.045490,0.004788,8.614338,2.087478,-1.699904,-0.118823
84000,-0.009577,-0.019154,8.494628,1.110379,-1.165553,-0.378365
88000,-0.014365,0.069432,8.331821,-0.049927,-0.371659,-0.622640
92000,-0.059855,0.114922,8.303091,-1.454507,0.697043,-0.775312
96000,-0.198719,0.004788,8.276755,-2.736950,1.261928,-0.790579
100000,-0.201113,0.055067,8.384495,-4.019392,1.613073,-0.912716
104000,-0.179565,-0.047884,8.425196,-5.210233,1.826814,-1.080655
108000,-0.196325,-0.050278,8.504205,-6.049927,1.857348,-1.492869
112000,-0.282516,-0.074220,8.602366,-6.645347,2.391699,-1.385999
116000,-0.356736,-0.158017,8.748413,-6.645347,2.498570,-1.569205
120000,-0.409408,-0.301669,8.822633,-6.660614,2.605440,-1.508136
124000,-0.550666,-0.320823,8.894460,-6.904889,1.964218,-1.370732
128000,-0.581791,-0.459687,9.162610,-5.881988,1.582539,-1.279129
132000,-0.624887,-0.536301,9.303867,-4.782751,1.597806,-0.347831
136000,-0.593762,-0.466869,9.287108,-3.210232,1.460402,-0.057755
140000,-0.536301,-0.459687,9.186552,-2.370538,1.200860,0.446062
144000,-0.440533,-0.481235,9.179369,-1.546110,1.292463,0.995681
148000,-0.316035,-0.423774,9.378088,-0.263667,1.918417,1.178887
152000,-0.114922,-0.306458,9.165004,0.682898,3.002386,1.148352
156000,0.062249,-0.287304,8.997410,1.110379,3.597806,0.583467
160000,0.102951,-0.234632,8.927979,1.873737,4.269562,0.064383
164000,0.081403,-0.191536,8.870518,2.240149,4.132157,-0.500503
168000,0.035913,-0.129287,8.693346,2.102745,4.758111,-1.034854
172000,0.069432,-0.131681,8.647857,1.766867,5.292463,-1.355464
176000,0.019154,-0.088585,8.477868,1.400455,5.200860,-1.599739
180000,0.000000,-0.045490,8.233660,0.652363,5.292463,-2.225693
184000,-0.057461,-0.033519,8.157045,-0.278934,4.529104,-2.393632
188000,-0.117316,-0.019154,8.109161,-1.683514,3.704677,-2.958518
192000,-0.179565,-0.083797,8.236053,-2.950690,2.712310,-3.279129
196000,-0.134075,-0.174777,8.303091,-3.790385,1.613073,-3.324930
200000,-0.299275,-0.232238,8.372523,-4.278934,0.956585,-3.385999
204000,-0.359130,-0.229843,8.429984,-4.782751,0.513837,-3.737144
208000,-0.442927,-0.323217,8.518570,-4.981225,0.040554,-3.706610
212000,-0.533907,-0.363919,8.523358,-4.996491,-0.753339,-3.324930
216000,-0.524330,-0.418985,8.655039,-5.286569,-1.180820,-3.141724
220000,-0.557849,-0.416591,8.671799,-5.393438,-0.829675,-3.019587
224000,-0.682347,-0.450110,8.707711,-5.301835,-0.707537,-2.485235
228000,-0.732626,-0.464475,8.683769,-5.439240,-1.073950,-1.889816
232000,-0.670376,-0.378284,8.554482,-5.149163,-1.333492,-1.233327
236000,-0.593762,-0.385466,8.523358,-5.256034,-1.364026,-0.561571
240000,-0.562637,-0.402226,8.710106,-5.133897,-1.669369,-0.134090
244000,-0.538695,-0.385466,8.753201,-4.675881,-1.745705,0.201787
248000,-0.490811,-0.287304,8.619126,-4.813286,-2.203721,0.354459
252000,-0.328006,-0.313640,8.825027,-5.103362,-2.463263,0.247589
256000,-0.428562,-0.311246,8.822633,-5.271301,-2.646469,0.232322
260000,-0.426168,-0.289698,8.992621,-4.981225,-3.745705,0.491864
264000,-0.433351,-0.328006,9.430760,-3.988858,-4.615934,0.369726
268000,-0.323217,-0.258574,9.452309,-3.011759,-3.989980,0.888810
272000,-0.265756,-0.306458,9.583989,-1.881988,-2.829675,0.904078
276000,-0.251391,-0.332794,9.533711,-0.736950,-0.692270,1.255223
280000,-0.253785,-0.277727,9.337387,-0.126262,1.032921,1.392627
284000,-0.289698,-0.320823,9.117120,0.133279,2.315363,1.591100
288000,-0.284910,-0.217872,8.927979,-0.019392,3.216127,1.453696
292000,-0.275333,-0.277727,8.992621,-0.187331,3.796279,1.468963
296000,-0.198719,-0.177171,8.939949,0.011142,4.269562,0.949879
300000,-0.251391,-0.215478,8.889671,0.133279,4.254295,0.736139
304000,-0.210690,-0.174777,8.839393,-0.110996,3.857348,0.232322
308000,-0.246603,-0.234632,8.755595,-0.599545,2.864982,-0.256228
312000,-0.459687,-0.229843,8.793902,-0.904888,1.307730,-0.653174
316000,-0.524330,-0.244209,8.714894,-1.164430,0.376432,-0.821113
320000,-0.608127,-0.256180,8.681376,-1.500308,-0.906011,-0.592106
324000,-0.663194,-0.328006,8.686164,-1.851454,-1.730438,-0.439434
328000,-0.639252,-0.335188,8.623915,-2.004125,-2.447995,-0.240961
332000,-0.656011,-0.354342,8.796297,-2.095728,-2.570133,0.339192
336000,-0.639252,-0.349553,8.662222,-1.958324,-2.829675,0.629268
340000,-0.574608,-0.354342,8.750807,-2.004125,-2.127385,1.209421
344000,-0.509965,-0.332794,8.808268,-1.836186,-1.089217,1.667436
348000,-0.356736,-0.258574,8.667010,-1.897255,-0.295324,1.499497
352000,-0.313640,-0.308852,8.595184,-1.851454,0.177959,1.820108
356000,-0.392649,-0.256180,8.674192,-1.988858,0.116890,1.850642
360000,-0.272939,-0.256180,8.700529,-2.126262,0.055821,1.774307
364000,-0.193930,-0.330400,8.729259,-2.217866,0.391699,1.682703
368000,-0.299275,-0.277727,8.710106,-2.126262,-0.203721,1.346826
372000,-0.299275,-0.318429,8.640674,-1.988858,-0.921278,1.163620
376000,-0.440533,-0.416591,8.535329,-2.049927,-1.455629,0.873543
380000,-0.416591,-0.387861,8.755595,-1.683514,-1.989980,1.041482
384000,-0.617704,-0.430956,8.762778,-1.317102,-2.463263,1.270490
388000,-0.706290,-0.481235,8.781932,-0.874354,-3.364026,1.453696
392000,-0.730232,-0.459687,8.611943,-0.645346,-3.776240,1.926978
396000,-0.665588,-0.438139,8.643068,-0.492675,-4.661736,2.369726
400000,-0.677559,-0.483629,8.719683,-0.981224,-5.302957,2.522398
404000,-0.653617,-0.507571,8.683769,-0.813286,-5.928911,3.316291
408000,-0.600945,-0.430956,8.769960,-1.042293,-5.837308,3.346826
412000,-0.457293,-0.445322,8.753201,-1.301835,-4.829675,3.804841
416000,-0.452504,-0.438139,8.741230,-2.202598,-3.776240,4.171253
420000,-0.435745,-0.442927,8.705317,-2.782751,-2.768606,4.614001
424000,-0.351948,-0.356736,8.734048,-3.469774,-1.425095,4.568200
428000,-0.229843,-0.359130,8.724471,-4.233133,-0.203721,4.614001
432000,-0.193930,-0.359130,8.609550,-5.011759,1.322997,4.537665
436000,-0.237026,-0.332794,8.571242,-5.622446,2.544371,4.705605
440000,-0.251391,-0.373495,8.485051,-6.126263,2.300096,4.644536
444000,-0.220267,-0.256180,8.300697,-7.271301,1.399333,4.140719
448000,-0.141258,-0.325611,8.283937,-8.874354,1.948951,3.652169
452000,-0.275333,-0.313640,8.513782,-9.500309,0.971852,3.117818
456000,-0.186748,-0.313640,8.410830,-9.591911,0.040554,2.751406
460000,-0.100556,-0.318429,8.339005,-9.530843,-0.799140,2.308658
464000,-0.107739,-0.337582,8.348581,-9.439240,-1.989980,1.591100
468000,-0.134075,-0.359130,8.422802,-9.637713,-3.608301,0.843009
472000,-0.196325,-0.320823,8.243237,-10.019393,-5.654102,0.201787
476000,-0.256180,-0.363919,8.571242,-10.477407,-8.432729,-0.027220
480000,-0.239420,-0.428562,8.729259,-10.278934,-9.272423,-0.347831
484000,-0.143652,-0.476446,9.119514,-9.668247,-8.188454,-0.118823
488000,-0.126893,-0.476446,9.212888,-8.324736,-6.951812,-0.134090
492000,0.009577,-0.478840,9.263166,-6.523210,-4.493797,0.003314
496000,-0.016759,-0.409408,9.188946,-5.393438,-2.249522,-0.179892
500000,0.050278,-0.423774,9.047688,-4.798018,-0.402194,-0.149358
504000,0.000000,-0.397437,8.868123,-4.691149,1.613073,-0.179892
508000,-0.088585,-0.373495,8.817844,-5.164431,3.353531,-0.134090
512000,-0.112527,-0.363919,8.535329,-5.912522,4.452768,0.232322
516000,-0.181959,-0.363919,8.365341,-6.401072,4.712310,0.247589
520000,-0.239420,-0.325611,8.214506,-7.149163,4.834447,0.736139
524000,-0.184354,-0.275333,7.996634,-8.996491,3.613073,0.583467
528000,-0.148441,-0.289698,7.999028,-10.278934,3.048188,0.537665
532000,-0.119710,-0.325611,7.838616,-11.698782,1.887883,0.278123
536000,-0.052672,-0.292093,7.908048,-13.240767,-0.203721,-0.027220
540000,-0.067038,-0.373495,8.049306,-14.340003,-2.402194,-0.668442
544000,-0.019154,-0.421380,8.185776,-15.576644,-4.509064,-1.095922
548000,0.047884,-0.478840,8.465898,-15.072827,-4.951812,-1.721877
552000,0.134075,-0.500388,8.451532,-15.790385,-2.829675,-1.355464
556000,0.021548,-0.548272,8.422802,-15.805652,-3.547232,-2.057755
560000,0.074220,-0.495600,8.511387,-15.378171,-1.486163,-2.134090
564000,-0.119710,-0.538695,8.389283,-15.576644,-1.241889,-2.103556
568000,-0.052672,-0.521936,8.331821,-15.988858,-0.524331,-2.363098
572000,-0.158017,-0.550666,7.951144,-16.981224,-0.615934,-2.271495
576000,-0.112527,-0.541090,7.984663,-17.576643,-1.196087,-2.240961
580000,-0.205901,-0.509965,7.762002,-18.706415,-2.020514,-2.302029
584000,-0.057461,-0.445322,7.833828,-20.049927,-2.341125,-2.607373
588000,-0.028730,-0.466869,7.553706,-21.637712,-2.799140,-3.019587
592000,-0.057461,-0.399832,7.489063,-23.790384,-5.501431,-3.721877
596000,0.076614,-0.407014,7.448361,-25.423971,-7.959445,-4.149358
600000,0.083797,-0.385466,7.429208,-27.729315,-10.386927,-5.080655
604000,0.122104,-0.361524,7.252037,-30.431606,-12.173186,-5.706609
608000,0.143652,-0.395043,7.031770,-33.393436,-13.440362,-6.408899
612000,0.026336,-0.423774,6.924031,-37.256031,-13.806774,-6.775311
616000,-0.150835,-0.474052,6.725313,-41.393436,-14.814408,-7.019587
620000,-0.169988,-0.538695,6.667852,-46.110996,-14.264790,-6.851647
624000,-0.119710,-0.533907,6.531382,-50.691147,-12.890744,-6.439434
628000,0.023942,-0.598550,6.409278,-55.683514,-11.959446,-6.332563
632000,-0.021548,-0.696713,6.093243,-60.859085,-11.379293,-6.363098
636000,-0.208296,-0.785298,5.650316,-66.645348,-13.944179,-6.408899
640000,-0.098162,-0.804452,5.832275,-75.317101,-15.699904,-7.248594
644000,-0.234632,-0.921768,6.167464,-80.309471,-16.264790,-6.760045
648000,-0.052672,-0.964863,6.186617,-84.370537,-19.760973,-7.065388
652000,0.146046,-1.053449,6.021417,-87.515572,-23.470896,-7.553937
656000,0.234632,-1.041478,5.760449,-92.294197,-27.028149,-8.714244
660000,0.272939,-1.173159,5.659893,-97.851456,-30.280056,-9.721877
664000,0.265756,-1.276109,5.410896,-104.141525,-34.524330,-10.912717
668000,0.344765,-1.326388,5.336676,-110.049927,-39.394562,-11.981419
672000,0.474052,-1.443704,5.281609,-116.446869,-43.669369,-13.370732
676000,0.533907,-1.575385,5.327099,-121.897255,-49.196087,-14.378366
680000,0.785298,-1.699883,5.269638,-127.729317,-53.119751,-15.340198
684000,0.821211,-1.733402,5.482722,-133.225510,-55.012882,-16.332563
688000,1.029507,-1.936909,5.576096,-139.027039,-54.356392,-17.218060
692000,1.019930,-2.080561,5.468357,-143.881989,-53.165554,-18.042486
696000,1.082179,-2.207454,5.468357,-148.645355,-53.333492,-18.683708
700000,1.003170,-2.398990,5.281609,-153.546112,-57.516697,-19.538670
704000,1.094150,-2.585738,5.181053,-159.118637,-59.089218,-20.408899
708000,0.976834,-2.652776,5.209783,-165.332382,-60.997616,-21.218060
712000,1.357512,-2.806004,5.403713,-171.881989,-57.730438,-21.248594
716000,1.414973,-2.937685,5.401319,-177.668259,-53.959446,-21.401266
720000,1.534683,-3.124433,5.216966,-182.782761,-52.295322,-21.828747
724000,1.568202,-3.287239,4.783615,-188.172073,-54.860210,-22.851646
728000,1.520318,-3.466804,4.690241,-193.057571,-54.539600,-23.767677
732000,1.367089,-3.615245,4.410120,-198.996506,-57.348759,-24.622639
736000,1.498770,-3.840300,4.108450,-204.874359,-55.333492,-24.302029
740000,1.474828,-4.082114,3.770868,-211.836197,-54.203720,-23.905083
744000,1.089362,-4.295198,3.078943,-219.805664,-56.432728,-23.187525
748000,1.055843,-4.663905,2.154782,-227.652985,-56.906010,-21.752411
752000,0.684742,-4.967968,1.280898,-237.668259,-58.783875,-19.996685
756000,0.476446,-5.331887,0.169988,-249.149170,-63.043415,-18.088287
760000,0.474052,-5.683835,-0.076614,-261.546112,-66.051048,-15.004320
764000,0.727837,-6.095637,-0.339977,-274.798004,-68.386925,-12.546305
768000,0.897826,-6.500257,-0.304064,-287.607178,-69.822037,-9.431801
772000,1.122881,-7.034164,-0.263362,-301.164429,-70.096848,-6.164625
776000,1.292869,-7.445967,-0.162806,-313.561371,-69.364021,-3.385999
780000,1.489193,-7.984663,0.026336,-325.576630,-66.112114,-0.622640
784000,1.651999,-8.588001,0.076614,-338.721680,-60.509064,2.186520
788000,2.066196,-9.114726,0.426168,-350.492676,-53.531963,3.988047
792000,2.104503,-9.610326,1.086968,-360.767487,-46.127384,5.606368
796000,2.027889,-9.976639,1.642422,-369.607178,-39.073952,7.331559
800000,1.999158,-10.340557,2.092532,-376.752197,-34.142651,8.552932
804000,1.821988,-10.802638,2.513912,-381.820923,-29.150286,9.621634
808000,1.666364,-11.192893,2.667141,-384.752197,-24.631203,10.293390
812000,1.259350,-11.674128,2.568978,-386.630066,-22.722805,11.041482
816000,0.981623,-12.006922,2.437297,-388.095734,-20.875477,11.652169
820000,0.399832,-12.334928,2.367866,-389.790375,-23.806774,13.270490
824000,0.141258,-12.650962,2.808398,-388.950684,-31.119751,14.507131
828000,0.241814,-12.852075,3.258508,-385.607178,-40.371658,16.125452
832000,0.368707,-13.180080,3.780444,-380.859070,-51.883110,17.301025
836000,0.620098,-13.359646,4.163517,-374.996490,-62.005249,18.614002
840000,0.835576,-13.453019,4.594473,-368.981201,-67.730438,19.835377
844000,0.952892,-13.393165,4.869806,-363.088074,-71.913643,20.629269
848000,1.165976,-13.448231,5.432444,-357.332367,-77.440361,21.072018
852000,1.484405,-13.472173,6.248867,-349.256012,-81.501427,20.888811
856000,1.810017,-13.522451,6.868965,-340.339996,-81.119751,21.026215
860000,1.850718,-13.522451,7.256825,-330.233124,-79.241882,21.194155
864000,1.903390,-13.594277,7.460332,-319.943054,-77.089211,20.827742
868000,1.721431,-13.663709,7.558495,-310.278931,-71.822037,21.407894
872000,1.376666,-13.508086,7.843405,-301.194946,-66.692268,22.049116
876000,1.398214,-13.615825,8.377312,-292.294189,-60.524330,23.957514
880000,1.558625,-13.572729,8.884883,-282.614807,-52.738071,25.591101
884000,1.391031,-13.469779,9.315839,-272.691132,-45.486164,27.133085
888000,1.340753,-13.441049,9.804255,-262.080444,-38.799141,28.781940
892000,1.134852,-13.457808,10.295067,-250.202606,-31.272423,30.293390
896000,0.876278,-13.412318,10.690110,-236.492676,-24.753340,32.659801
900000,0.679953,-13.304579,11.077971,-222.004135,-18.799141,34.873543
904000,0.486023,-13.321339,11.420342,-205.805664,-13.379293,37.591103
908000,0.227449,-13.134590,11.470620,-189.775131,-8.707538,39.926979
912000,-0.052672,-13.165715,11.396400,-172.614822,-7.470896,43.804840
916000,0.320823,-12.885593,11.520899,-154.080475,-1.257156,46.568199
920000,0.083797,-12.713211,10.690110,-135.744583,4.010020,50.507130
924000,0.045490,-12.471396,9.938332,-119.851456,5.964219,53.636902
928000,0.581791,-12.325351,9.445126,-106.172066,8.971851,55.896446
932000,0.845153,-12.188881,8.796297,-94.370537,12.147424,57.407894
936000,1.086968,-11.920731,7.905654,-84.355270,13.994752,58.155987
940000,1.340753,-11.604695,7.079654,-74.874352,14.864982,58.476597
944000,1.733402,-11.465832,6.208165,-66.446869,14.956584,58.247589
948000,1.910573,-11.346122,5.463568,-58.874355,15.765745,57.621635
952000,2.130840,-11.051635,4.541800,-53.439240,16.162691,56.339191
956000,2.300828,-10.828975,3.718195,-49.698780,15.658875,54.278126
960000,2.425326,-10.625467,2.853889,-46.996490,15.246661,51.865910
964000,2.494758,-10.421960,2.193089,-45.576645,13.948951,48.843010
968000,2.513912,-10.232818,1.771709,-45.057560,11.994752,45.636902
972000,2.626439,-10.180145,1.584962,-44.462139,10.742844,42.323925
976000,2.537854,-10.055647,1.479617,-44.904888,7.750478,38.552933
980000,2.451663,-9.938332,1.242591,-45.225498,7.552005,34.430798
984000,2.303222,-9.892841,1.233014,-45.836185,7.063455,30.812475
988000,2.027889,-9.842564,1.283292,-45.393436,5.613073,27.575834
992000,1.843535,-9.813833,1.505953,-44.309467,2.544371,24.247589
996000,1.616086,-9.856929,1.637634,-42.843819,-0.799140,21.255222
1000000,1.386243,-9.981427,1.764527,-41.179695,-3.776240,18.797209
1004000,1.264138,-9.916783,1.920150,-39.836185,-3.669369,16.659803
1008000,1.015141,-10.002975,2.233790,-37.088093,-3.654102,15.224688
1012000,0.991199,-10.031705,2.310405,-33.607178,-3.776240,14.094917
1016000,0.912191,-9.971850,2.398990,-29.881989,-2.860209,13.133085
1020000,0.830788,-10.031705,2.291251,-26.507942,-1.394560,12.629268
1024000,0.871489,-10.036493,2.157176,-23.500307,0.773379,12.247588
1028000,0.792481,-10.012551,2.118869,-21.149162,3.002386,11.789574
1032000,0.780510,-10.017340,1.989582,-18.798018,4.284829,11.499497
1036000,0.723049,-10.041282,1.946486,-16.462139,5.643608,11.285756
1040000,0.653617,-10.019734,1.891419,-14.248401,6.361165,11.148352
1044000,0.739808,-10.031705,1.790863,-11.133897,7.399333,11.255222
1048000,0.718261,-10.034100,1.699883,-8.736950,7.567272,11.438428
1052000,0.852336,-9.998186,1.493982,-6.278934,7.552005,11.316291
1056000,0.914585,-10.005369,1.127669,-4.538477,5.414600,11.163619
1060000,1.074997,-9.813833,0.768539,-3.546110,4.437501,10.507131
1064000,1.127669,-9.787497,0.371101,-3.607178,2.773379,9.682703
1068000,1.266533,-9.701305,0.045490,-4.675881,0.880249,8.598734
1072000,1.503559,-9.617508,-0.112527,-5.943057,0.040554,7.392627
1076000,1.424550,-9.598354,-0.246603,-7.958323,-0.692270,6.094917
1080000,1.362301,-9.629479,-0.301669,-10.126263,-1.593034,4.507131
1084000,1.312023,-9.593566,-0.342371,-11.698782,-2.264789,3.499497
1088000,1.249773,-9.619903,-0.272939,-13.210233,-3.104484,2.369726
1092000,1.223437,-9.593566,-0.148441,-14.523210,-3.440362,1.148352
1096000,1.103727,-9.641450,0.021548,-15.454507,-3.638835,0.140719
1100000,1.007959,-9.603143,0.208296,-16.126263,-4.371659,-0.653174
1104000,0.878672,-9.679757,0.478840,-16.263666,-5.348759,-0.943251
1108000,0.806846,-9.660604,0.598550,-15.408706,-5.944179,-1.324930
1112000,0.703895,-9.627085,0.687136,-14.630080,-5.913644,-1.233327
1116000,0.572214,-9.660604,0.598550,-13.668248,-6.249522,-1.050121
1120000,0.500388,-9.636662,0.725443,-12.904889,-6.096850,-0.576838
1124000,0.457293,-9.615114,0.814029,-12.034659,-6.035781,0.003314
1128000,0.392649,-9.622296,0.708684,-10.706415,-6.768606,0.507131
1132000,0.373495,-9.698911,0.744597,-9.103362,-7.760972,1.087284
1136000,0.490811,-9.713276,0.598550,-7.775118,-7.333491,1.407894
1140000,0.679953,-9.708488,0.462081,-7.439240,-6.081583,1.530032
1144000,0.562637,-9.648633,0.620098,-7.072827,-5.226621,1.316291
1148000,0.560243,-9.653421,0.526724,-6.294202,-4.173186,1.575833
1152000,0.572214,-9.648633,0.438139,-4.889622,-3.364026,1.820108
1156000,0.483629,-9.607931,0.328006,-4.187331,-4.249522,2.125452
1160000,0.476446,-9.653421,0.153229,-3.347636,-2.585400,2.766673
1164000,0.435745,-9.516952,0.026336,-3.256034,-2.325858,3.224688
1168000,0.344765,-9.540894,0.026336,-3.301835,-2.356392,3.713238
1172000,0.375890,-9.512163,0.114922,-3.347636,-3.180820,4.476597
1176000,0.466869,-9.536105,0.071826,-3.042293,-4.707537,4.537665
1180000,0.411803,-9.418790,0.129287,-3.072828,-5.501431,4.797207
1184000,0.435745,-9.490616,0.067038,-3.362904,-5.470896,4.965147
1188000,0.476446,-9.406818,0.172383,-3.897255,-5.150285,5.072017
1192000,0.565032,-9.452309,0.095768,-3.729316,-4.341125,5.255223
1196000,0.507571,-9.356541,0.160412,-3.714049,-3.150285,5.514765
1200000,0.423774,-9.354146,0.134075,-4.034659,-3.104484,5.377360
1204000,0.490811,-9.356541,0.227449,-4.233133,-2.051049,5.621635
1208000,0.507571,-9.390059,0.112527,-4.202599,-1.196087,5.774307
1212000,0.557849,-9.313444,0.268151,-4.294202,-0.783873,5.499497
1216000,0.593762,-9.315839,0.237026,-4.263667,-0.035782,5.224689
1220000,0.617704,-9.349358,0.287304,-3.485041,-0.081583,4.766673
1224000,0.629675,-9.361329,0.282516,-2.798018,-0.203721,4.003314
1228000,0.586579,-9.227253,0.079009,-2.340003,-0.692270,3.407894
1232000,0.615310,-9.344569,0.071826,-2.049927,-1.073950,2.720871
1236000,0.536301,-9.337387,-0.026336,-2.324736,-1.562499,2.125452
1240000,0.567426,-9.291897,-0.114922,-2.798018,-1.928911,1.743772
1244000,0.555455,-9.318233,-0.155623,-3.042293,-2.188453,1.301024
1248000,0.543484,-9.375694,-0.047884,-3.576644,-2.386927,1.026215
1252000,0.603339,-9.392453,0.002394,-3.576644,-2.295324,0.873543
1256000,0.509965,-9.425972,0.014365,-3.775118,-1.593034,0.766673
1260000,0.545878,-9.469068,0.050278,-3.668247,-0.631201,1.010948
1264000,0.447716,-9.481039,0.122104,-3.515576,0.498570,1.301024
1268000,0.483629,-9.421184,0.148441,-3.149163,1.032921,1.163620
1272000,0.529119,-9.454702,0.158017,-2.553744,1.781012,1.301024
1276000,0.481235,-9.509769,0.189142,-2.004125,2.361165,1.346826
1280000,0.507571,-9.464279,0.354342,-1.530843,2.101623,1.346826
1284000,0.524330,-9.488221,0.215478,-0.965957,2.193226,1.362093
1288000,0.634463,-9.425972,0.294487,-0.324736,1.933684,1.194154
1292000,0.667982,-9.536105,0.335188,0.056943,1.918417,0.797207
1296000,0.708684,-9.445126,0.371101,0.347020,1.903150,0.339192
1300000,0.727837,-9.466674,0.318429,0.942440,1.811547,0.217055
1304000,0.744597,-9.538500,0.378284,1.598928,1.200860,-0.179892
1308000,0.735020,-9.536105,0.308852,2.652363,1.216127,-0.790579
1312000,0.706290,-9.543288,0.383072,3.125646,0.803913,-1.004319
1316000,0.682347,-9.504981,0.181959,3.751600,0.223760,-1.172258
1320000,0.663194,-9.545682,0.284910,3.721066,-0.035782,-1.508136
1324000,0.718261,-9.579201,0.217872,3.965340,-0.539598,-1.966151
1328000,0.735020,-9.583989,0.150835,4.408089,-1.165553,-2.302029
1332000,0.701501,-9.576807,0.208296,4.560760,-1.318224,-2.546304
1336000,0.670376,-9.552865,-0.009577,4.194348,-0.936545,-2.744777
1340000,0.531513,-9.591172,-0.105345,3.980608,-0.936545,-2.500503
1344000,0.574608,-9.576807,-0.229843,3.415722,-1.089217,-2.790579
1348000,0.517148,-9.557653,-0.208296,2.621829,-0.539598,-2.576838
1352000,0.565032,-9.639056,-0.373495,1.583661,-0.157919,-2.698976
1356000,0.555455,-9.627085,-0.289698,0.408088,0.284829,-2.714243
1360000,0.627281,-9.634268,-0.215478,-0.965957,0.773379,-2.698976
1364000,0.462081,-9.641450,-0.129287,-1.912522,1.017653,-2.469968
1368000,0.344765,-9.749189,-0.110133,-2.675881,0.834447,-1.996686
1372000,0.344765,-9.794679,0.031125,-3.210232,0.834447,-1.553938
1376000,0.301669,-9.861717,0.292093,-3.347636,1.200860,-1.202793
1380000,0.308852,-9.880871,0.337582,-3.149163,1.490936,-0.531037
1384000,0.447716,-9.883265,0.454898,-2.660614,1.964218,0.262856
1388000,0.402226,-9.880871,0.328006,-2.553744,2.559638,0.843009
1392000,0.596156,-9.880871,0.411803,-2.736950,3.384066,1.331558
1396000,0.651223,-9.900024,0.409408,-2.569010,3.826814,1.484230
1400000,0.751779,-9.909601,0.308852,-2.340003,3.155058,1.316291
1404000,0.890643,-9.950302,0.514753,-1.897255,3.093989,0.949879
1408000,0.912191,-9.926360,0.509965,-1.149163,3.261928,0.354459
1412000,0.991199,-9.859323,0.466869,-0.340003,3.032921,-0.500503
1416000,0.979228,-9.873688,0.526724,0.362287,2.681776,-1.233327
1420000,0.936133,-9.892841,0.624887,1.156180,2.086356,-1.782945
1424000,0.873884,-9.876082,0.574608,2.423356,1.399333,-2.424167
1428000,0.873884,-9.837775,0.521936,3.095111,0.468035,-3.095922
1432000,0.876278,-9.859323,0.428562,3.369921,-0.157919,-3.569205
1436000,0.857124,-9.809045,0.433351,3.812669,-0.509064,-3.737144
1440000,0.823605,-9.825804,0.378284,4.377554,-1.012881,-4.179892
1444000,0.782904,-9.742006,0.280122,4.347020,-0.768606,-4.332564
1448000,0.792481,-9.818622,0.177171,3.873737,-0.188453,-4.744777
1452000,0.804452,-9.813833,0.050278,3.354653,1.124524,-4.760045
1456000,0.665588,-9.823410,0.007183,2.896638,2.132157,-4.744777
1460000,0.483629,-9.852140,-0.019154,2.056943,2.193226,-4.836380
1464000,0.536301,-9.844957,0.304064,1.400455,2.315363,-4.225693
1468000,0.447716,-9.895236,0.086191,0.881371,2.788646,-4.042487
1472000,0.550666,-9.871294,0.141258,0.423356,2.498570,-3.905083
1476000,0.524330,-9.921572,0.110133,0.347020,2.422234,-3.950884
1480000,0.620098,-9.909601,0.263362,0.209615,2.529104,-4.011953
1484000,0.454898,-9.866506,0.067038,0.270684,2.803913,-3.691342
1488000,0.454898,-9.849746,0.031125,0.331753,1.674142,-3.523403
1492000,0.502782,-9.823410,0.215478,0.194348,0.987119,-3.737144
1496000,0.464475,-9.849746,0.296881,0.606562,0.605440,-3.370732
1500000,0.421380,-9.809045,0.280122,1.400455,-0.234255,-3.431800
1504000,0.428562,-9.797073,0.347159,1.721066,-0.493797,-3.172258
1508000,0.507571,-9.830592,0.337582,2.102745,-0.356392,-2.927984
1512000,0.567426,-9.813833,0.366313,2.102745,1.063455,-2.805846
1516000,0.507571,-9.730036,0.237026,2.224883,1.552005,-2.485235
1520000,0.471658,-9.804255,0.351948,2.652363,1.964218,-2.576838
1524000,0.543484,-9.713276,0.454898,3.003508,2.880249,-2.454701
1528000,0.588974,-9.706094,0.519542,3.598928,4.284829,-1.782945
1532000,0.581791,-9.679757,0.481235,4.362287,5.994753,-1.737144
1536000,0.569820,-9.603143,0.438139,5.018775,6.284829,-1.569205
1540000,0.577003,-9.593566,0.220267,5.369921,6.437501,-1.569205
1544000,0.612916,-9.617508,0.256180,5.553127,5.658875,-1.950884
1548000,0.567426,-9.581595,0.174777,5.461524,5.246661,-2.042487
1552000,0.557849,-9.557653,0.146046,5.553127,4.681776,-2.286762
1556000,0.629675,-9.516952,-0.035913,5.476791,3.460402,-2.531037
1560000,0.617704,-9.550470,-0.019154,5.553127,2.239028,-3.233327
1564000,0.725443,-9.569624,-0.040701,5.263051,1.048188,-3.874548
1568000,0.644040,-9.569624,-0.090980,4.698165,0.544371,-4.531037
1572000,0.610521,-9.543288,0.023942,4.591295,-0.478530,-5.111189
1576000,0.560243,-9.545682,-0.021548,4.331753,-1.165553,-5.737144
1580000,0.423774,-9.536105,0.076614,3.995875,-1.364026,-5.874548
1584000,0.426168,-9.615114,0.009577,3.904272,-1.394560,-5.996686
1588000,0.328006,-9.670180,0.083797,3.797401,-1.455629,-5.920350
1592000,0.471658,-9.691729,0.095768,3.583661,-1.394560,-5.905083
1596000,0.435745,-9.734824,0.203507,3.400455,-1.440362,-6.332563
1600000,0.383072,-9.722853,0.239420,3.354653,-0.875476,-5.721877
1604000,0.426168,-9.727641,0.301669,3.232516,-0.509064,-5.630273
1608000,0.395043,-9.725247,0.418985,3.415722,-0.005247,-5.156991
1612000,0.332794,-9.725247,0.481235,3.766867,0.513837,-4.729510
1616000,0.268151,-9.730036,0.553061,4.118012,0.345898,-4.225693
1620000,0.368707,-9.816227,0.447716,4.805035,0.574905,-3.523403
1624000,0.399832,-9.751583,0.347159,5.171447,0.376432,-3.202793
1628000,0.277727,-9.768343,0.296881,5.186715,0.788646,-2.714243
1632000,0.354342,-9.694122,0.220267,4.728699,0.819180,-1.920350
1636000,0.380678,-9.691729,0.244209,4.774501,0.590173,-1.416533
1640000,0.519542,-9.641450,0.275333,4.713432,0.483302,-0.760045
1644000,0.521936,-9.624691,0.126893,4.331753,0.803913,-0.531037
1648000,0.653617,-9.572019,0.167594,4.026409,0.971852,-0.408900
1652000,0.656011,-9.507375,-0.033519,3.583661,1.826814,-0.073022
1656000,0.658405,-9.543288,-0.028730,2.881371,2.040554,-0.210426
1660000,0.586579,-9.540894,-0.038307,2.438623,1.765745,-0.714243
1664000,0.667982,-9.574412,-0.050278,1.766867,1.338264,-0.698976
1668000,0.639252,-9.538500,0.076614,1.476791,0.498570,-1.431800
1672000,0.646434,-9.636662,0.165200,1.278317,0.040554,-1.477602
1676000,0.706290,-9.598354,0.184354,1.171447,-0.096850,-2.179892
1680000,0.699107,-9.646238,0.210690,1.537859,-0.264789,-2.637907
1684000,0.579397,-9.720459,0.375890,1.736333,-0.600667,-3.141724
1688000,0.629675,-9.689334,0.466869,2.179081,-0.677003,-3.523403
1692000,0.641646,-9.765948,0.509965,2.972974,-0.875476,-4.332564
1696000,0.701501,-9.782708,0.555455,4.148547,-0.768606,-4.424167
1700000,0.696713,-9.761160,0.497994,4.911905,-0.554866,-5.111189
1704000,0.577003,-9.756371,0.356736,5.400455,0.010020,-4.775311
1708000,0.536301,-9.701305,0.399832,5.629463,0.223760,-5.019587
1712000,0.553061,-9.710882,0.270545,5.537859,-0.112117,-4.882182
1716000,0.519542,-9.674969,0.325611,5.507325,-0.234255,-4.683709
1720000,0.459687,-9.648633,0.294487,5.400455,-0.447995,-4.164625
1724000,0.442927,-9.653421,0.155623,5.339386,-0.310591,-3.676075
1728000,0.404620,-9.617508,0.131681,4.667631,-0.631201,-2.851648
1732000,0.356736,-9.691729,0.043096,4.301219,-0.799140,-2.485235
1736000,0.438139,-9.593566,-0.040701,3.263050,-1.119751,-1.630274
1740000,0.416591,-9.651027,0.148441,2.560760,-1.272423,-1.187526
1744000,0.557849,-9.564836,0.311246,2.255417,-0.585400,-0.668442
1748000,0.565032,-9.552865,0.430956,2.255417,0.071089,-0.210426
1752000,0.610521,-9.536105,0.395043,2.377554,0.727577,-0.149358
1756000,0.699107,-9.504981,0.392649,2.163814,1.521470,0.217055
1760000,0.735020,-9.591172,0.256180,2.240149,1.933684,-0.103556
1764000,0.778116,-9.543288,0.210690,2.163814,2.559638,-0.011953
1768000,0.703895,-9.557653,0.378284,1.690531,2.376432,-0.073022
1772000,0.708684,-9.485827,0.280122,1.369921,1.964218,-0.424167
1776000,0.804452,-9.607931,0.344765,1.583661,1.292463,-0.729510
1780000,0.780510,-9.612720,0.430956,1.629462,0.666508,-0.989052
1784000,0.787692,-9.600749,0.289698,2.224883,0.361165,-1.676075
1788000,0.766145,-9.600749,0.239420,2.209615,0.300096,-1.767678
1792000,0.694318,-9.636662,0.208296,2.011142,-0.493797,-1.935617
1796000,0.677559,-9.622296,0.191536,2.056943,-1.440362,-1.920350
1800000,0.608127,-9.646238,0.277727,2.133279,-2.493797,-1.874548
1804000,0.768539,-9.655815,0.248997,2.408089,-2.371660,-1.935617
1808000,0.670376,-9.593566,0.126893,2.316485,-2.142652,-1.691342
1812000,0.627281,-9.548077,0.062249,1.980608,-1.745705,-1.538671
1816000,0.617704,-9.646238,-0.090980,1.430989,-1.608301,-1.477602
1820000,0.651223,-9.607931,0.119710,0.850837,-1.806774,-1.355464
1824000,0.603339,-9.612720,0.021548,0.163814,-1.654102,-1.156991
1828000,0.636858,-9.603143,0.215478,-0.065194,-1.730438,-1.065388
1832000,0.672771,-9.588778,0.263362,-0.202598,-1.501431,-0.943251
1836000,0.708684,-9.646238,0.471658,0.148546,-1.364026,-0.714243
1840000,0.574608,-9.641450,0.399832,0.362287,-1.073950,-0.622640
1844000,0.579397,-9.629479,0.328006,0.423356,-0.906011,-0.118823
1848000,0.512359,-9.648633,0.280122,0.499691,-1.501431,0.323925
1852000,0.612916,-9.725247,0.275333,0.484424,-1.959446,0.736139
1856000,0.588974,-9.627085,0.193930,0.301218,-2.081583,0.858276
1860000,0.648829,-9.653421,0.375890,-0.202598,-2.249522,1.194154
1864000,0.699107,-9.617508,0.320823,-0.599545,-1.654102,1.636902
1868000,0.708684,-9.622296,0.306458,-0.782751,-0.829675,1.881177
1872000,0.706290,-9.583989,0.304064,-1.164430,-0.142652,2.369726
1876000,0.653617,-9.603143,0.275333,-1.378171,0.193226,2.568200
1880000,0.761356,-9.550470,0.270545,-1.759850,1.185592,2.781940
1884000,0.754174,-9.591172,0.289698,-2.065194,1.872615,3.133085
1888000,0.725443,-9.619903,0.342371,-2.065194,2.284829,2.995681
1892000,0.785298,-9.627085,0.395043,-1.881988,2.513837,3.285757
1896000,0.684742,-9.619903,0.450110,-1.668247,2.819180,3.133085
1900000,0.828394,-9.660604,0.603339,-1.485041,2.788646,2.644536
1904000,0.835576,-9.646238,0.586579,-0.996492,2.498570,1.988047
1908000,0.914585,-9.612720,0.629675,-0.080461,1.628341,1.682703
1912000,0.945710,-9.627085,0.696713,0.759233,0.941318,0.797207
1916000,0.948104,-9.612720,0.756568,1.415722,0.681776,0.140719
1920000,1.010353,-9.552865,0.718261,2.026409,0.208493,-0.256228
1924000,0.967257,-9.600749,0.579397,2.789768,0.101623,-0.989052
1928000,0.979228,-9.560047,0.474052,3.034043,0.513837,-1.599739
1932000,0.849942,-9.591172,0.411803,3.598928,-0.188453,-2.225693
1936000,0.826000,-9.569624,0.373495,4.072211,-0.402194,-2.546304
1940000,0.955287,-9.557653,0.325611,4.148547,0.437501,-2.592106
1944000,0.885855,-9.622296,0.378284,4.224883,1.155058,-2.851648
1948000,0.823605,-9.629479,0.359130,3.782134,1.597806,-3.172258
1952000,0.744597,-9.732430,0.392649,3.797401,2.086356,-3.065388
1956000,0.627281,-9.677363,0.294487,3.782134,1.597806,-2.882182
1960000,0.644040,-9.730036,0.277727,3.492058,0.788646,-2.485235
1964000,0.555455,-9.746795,0.311246,3.476791,0.742844,-1.889816
1968000,0.656011,-9.787497,0.313640,3.171447,0.452768,-1.721877
1972000,0.737414,-9.701305,0.380678,2.789768,0.529104,-1.416533
1976000,0.656011,-9.792285,0.275333,2.621829,0.177959,-1.156991
1980000,0.694318,-9.746795,0.373495,2.484425,0.361165,-0.836380
1984000,0.670376,-9.684546,0.351948,2.285951,0.697043,-0.531037
1988000,0.629675,-9.730036,0.289698,1.827936,1.048188,-0.424167
1992000,0.653617,-9.682152,0.306458,1.217249,1.307730,-0.011953
1996000,0.667982,-9.715671,0.339977,1.156180,1.277195,-0.057755
