time_us,ax,ay,az,gx,gy,gz
0,-0.160412,-0.179565,8.765172,-2.996492,4.773379,-1.431800
4000,-0.258574,-0.146046,8.717288,-2.828552,5.445135,-1.111190
8000,-0.354342,-0.138864,8.640674,-3.027026,5.948951,-1.019587
12000,-0.342371,-0.181959,8.439561,-3.622446,6.208493,-0.393632
16000,-0.330400,-0.179565,8.492233,-4.370538,5.842081,-0.439434
20000,-0.215478,-0.165200,8.576031,-4.904889,4.956585,-0.103556
24000,-0.268151,-0.210690,8.657434,-5.103362,4.361165,-0.027220
28000,-0.196325,-0.241814,8.839393,-5.118629,3.796279,-0.240961
32000,-0.234632,-0.316035,8.884883,-4.202599,3.216127,-0.057755
36000,-0.217872,-0.284910,8.990228,-3.332370,3.338264,-0.378365
40000,-0.162806,-0.337582,9.078813,-1.943056,2.361165,-0.531037
44000,-0.239420,-0.359130,9.121908,-1.103362,1.399333,-0.683709
48000,-0.351948,-0.292093,9.119514,-0.217866,-0.402194,-1.065388
52000,-0.447716,-0.328006,9.172187,0.301218,-1.913644,-1.004319
56000,-0.359130,-0.277727,9.105149,1.324119,-2.081583,-0.805846
60000,-0.476446,-0.301669,9.045294,1.690531,-2.112118,-0.637907
64000,-0.287304,-0.205901,8.908825,1.629462,-1.837308,-0.576838
68000,-0.371101,-0.215478,8.662222,1.446256,-1.425095,-0.485235
72000,-0.366313,-0.117316,8.652645,0.484424,-0.906011,-0.500503
76000,-0.304064,-0.088585,8.564059,-0.614812,-0.173186,-0.256228
80000,-0.371101,-0.095768,8.473080,-1.820919,0.544371,-0.149358
84000,-0.306458,-0.064643,8.444349,-3.011759,1.521470,0.064383
88000,-0.337582,-0.107739,8.475474,-3.958324,2.559638,0.339192
92000,-0.227449,-0.100556,8.590396,-4.889622,3.933684,0.583467
96000,-0.210690,-0.095768,8.681376,-5.042294,4.819180,0.522398
100000,-0.213084,-0.155623,8.712500,-5.576645,4.529104,0.110184
104000,-0.306458,-0.153229,8.999804,-5.225499,3.872615,0.262856
108000,-0.418985,-0.354342,9.234436,-4.553743,3.231394,0.308658
112000,-0.426168,-0.375890,9.224859,-3.714049,3.368799,0.766673
116000,-0.466869,-0.380678,9.244013,-3.194965,3.811547,1.423162
120000,-0.395043,-0.469264,9.234436,-2.569010,3.674142,1.774307
124000,-0.347159,-0.421380,9.265560,-1.775118,3.719944,2.094917
128000,-0.294487,-0.351948,9.323022,-1.454507,3.490936,2.446062
132000,-0.191536,-0.342371,9.167398,-1.194965,3.475669,2.491864
136000,-0.141258,-0.395043,9.282320,-0.828552,3.643608,2.705604
140000,-0.038307,-0.373495,9.129091,-0.141530,3.399333,2.552932
144000,0.074220,-0.311246,8.990228,0.545493,3.322997,2.079650
148000,0.043096,-0.263362,8.868123,1.064577,2.803913,1.667436
152000,0.086191,-0.189142,9.006987,1.217249,1.261928,1.224688
156000,0.155623,-0.186748,9.097966,1.156180,0.040554,0.843009
160000,0.198719,-0.148441,9.150639,1.064577,1.277195,0.690337
164000,0.335188,-0.177171,9.088389,1.064577,2.513837,0.751406
168000,0.241814,-0.146046,9.136273,1.064577,3.490936,0.278123
172000,0.320823,-0.067038,9.059659,1.156180,4.071089,0.003314
176000,0.284910,-0.165200,8.987833,0.988241,5.155058,-0.363098
180000,0.201113,-0.150835,8.937555,0.377554,6.147425,-0.469968
184000,0.150835,-0.174777,8.796297,0.270684,6.834447,-0.393632
188000,0.093374,-0.169988,8.911219,0.087478,6.971852,-0.195159
192000,0.062249,-0.150835,8.829816,0.209615,7.811547,-0.439434
196000,0.102951,-0.193930,8.786720,0.347020,7.796279,-0.378365
200000,0.043096,-0.169988,8.564059,0.530226,6.620707,-0.775312
204000,0.064643,-0.148441,8.614338,0.698165,5.078722,-0.836380
208000,-0.014365,-0.248997,8.485051,0.453890,4.666509,-0.989052
212000,-0.079009,-0.134075,8.312668,-0.126262,3.613073,-1.218060
216000,-0.150835,-0.138864,8.248025,-0.782751,1.964218,-1.477602
220000,-0.110133,-0.153229,8.207323,-1.668247,1.170325,-1.385999
224000,-0.110133,-0.169988,8.276755,-2.385804,0.712310,-1.431800
228000,-0.162806,-0.213084,8.250419,-2.752217,0.834447,-1.218060
232000,-0.110133,-0.193930,8.200141,-3.194965,1.521470,-1.050121
236000,-0.184354,-0.227449,8.327033,-3.454507,2.361165,-1.019587
240000,-0.205901,-0.169988,8.200141,-4.141530,3.292463,-0.607373
244000,-0.265756,-0.165200,8.008605,-4.813286,3.445134,-0.256228
248000,-0.299275,-0.174777,8.197746,-5.607179,3.414600,-0.088289
252000,-0.320823,-0.225055,8.358158,-6.187331,3.353531,0.171253
256000,-0.301669,-0.258574,8.221688,-6.401072,3.002386,0.278123
260000,-0.270545,-0.213084,8.281544,-6.691149,2.406966,0.308658
264000,-0.244209,-0.304064,8.331821,-6.706415,1.521470,0.278123
268000,-0.325611,-0.246603,8.408437,-7.118629,0.666508,0.155986
272000,-0.304064,-0.325611,8.597578,-7.362904,-0.478530,0.384994
276000,-0.237026,-0.366313,8.645462,-7.408706,-1.822041,0.323925
280000,-0.253785,-0.375890,8.712500,-6.874354,-2.646469,-0.042487
284000,-0.205901,-0.371101,8.901642,-6.217866,-2.341125,0.278123
288000,-0.105345,-0.378284,8.841787,-5.591911,-1.852576,0.262856
292000,-0.134075,-0.351948,8.889671,-5.133897,-1.272423,-0.118823
296000,-0.112527,-0.344765,8.949526,-4.904889,-0.066316,-0.057755
300000,-0.081403,-0.323217,8.983045,-4.599545,0.926050,-0.393632
304000,0.038307,-0.239420,8.884883,-4.309469,1.842081,-0.790579
308000,-0.021548,-0.237026,9.030929,-3.805652,2.834447,-1.050121
312000,0.069432,-0.189142,8.916007,-3.179698,3.719944,-1.462335
316000,0.014365,-0.160412,8.803479,-2.492675,4.010020,-1.950884
320000,-0.009577,-0.119710,8.623915,-2.324736,3.658875,-2.363098
324000,-0.112527,-0.045490,8.528147,-2.569010,2.971852,-2.958518
328000,-0.220267,-0.158017,8.372523,-2.981224,1.948951,-3.263861
332000,-0.339977,-0.143652,8.312668,-4.004126,0.849715,-3.355464
336000,-0.311246,-0.138864,8.209718,-4.446874,0.361165,-3.462335
340000,-0.378284,-0.189142,8.248025,-4.889622,0.055821,-3.447068
344000,-0.385466,-0.198719,8.169016,-5.973591,-0.432728,-3.538671
348000,-0.478840,-0.220267,8.123527,-6.721683,-0.341125,-3.309663
352000,-0.574608,-0.282516,8.195353,-8.294202,0.132157,-3.263861
356000,-0.600945,-0.354342,8.106767,-9.591911,0.620707,-3.050121
360000,-0.646434,-0.435745,8.068460,-11.225499,0.956585,-2.653174
364000,-0.670376,-0.462081,8.374918,-12.355271,0.361165,-2.332564
368000,-0.711078,-0.615310,8.611943,-13.011760,-0.203721,-1.767678
372000,-0.644040,-0.598550,8.825027,-12.981225,-0.906011,-1.492869
376000,-0.665588,-0.646434,9.052477,-12.675881,-0.722805,-1.034854
380000,-0.651223,-0.624887,9.069236,-11.698782,-0.310591,-0.286762
384000,-0.562637,-0.646434,9.035717,-11.057561,0.162692,-0.057755
388000,-0.483629,-0.636858,8.930372,-10.691149,0.208493,0.110184
392000,-0.541090,-0.593762,8.808268,-10.859087,0.071089,0.354459
396000,-0.586579,-0.548272,8.655039,-11.225499,-0.615934,0.461329
400000,-0.409408,-0.536301,8.736442,-11.301835,-0.570133,0.797207
404000,-0.299275,-0.430956,8.841787,-11.240767,0.147424,0.949879
408000,-0.277727,-0.442927,8.702923,-10.706415,0.544371,0.904078
412000,-0.296881,-0.349553,8.643068,-10.736950,0.880249,0.537665
416000,-0.320823,-0.320823,8.494628,-10.904889,0.712310,0.278123
420000,-0.368707,-0.306458,8.497022,-11.149163,0.452768,0.186520
424000,-0.306458,-0.407014,8.638280,-10.828553,-0.493797,-0.149358
428000,-0.277727,-0.332794,8.710106,-10.385805,-1.440362,-0.378365
432000,-0.347159,-0.306458,8.717288,-9.515575,-1.913644,-0.424167
436000,-0.292093,-0.311246,8.604761,-8.462141,-2.631201,-0.958518
440000,-0.392649,-0.373495,8.477868,-8.691149,-3.562499,-1.019587
444000,-0.414197,-0.380678,8.602366,-9.011759,-4.875476,-1.355464
448000,-0.442927,-0.471658,8.643068,-9.668247,-5.791507,-1.279129
452000,-0.469264,-0.481235,8.667010,-10.813286,-6.463263,-1.156991
456000,-0.359130,-0.471658,8.839393,-11.729317,-6.325858,-1.248594
460000,-0.351948,-0.557849,8.808268,-11.988858,-5.516697,-1.172258
464000,-0.282516,-0.641646,8.858546,-12.294202,-4.020514,-0.683709
468000,-0.217872,-0.586579,8.963891,-12.446874,-2.463263,-0.866915
472000,-0.280122,-0.632069,8.980651,-12.920156,-0.478530,-0.637907
476000,-0.342371,-0.632069,8.954314,-13.057561,0.193226,-0.561571
480000,-0.435745,-0.667982,9.028535,-13.057561,0.941318,-0.347831
484000,-0.318429,-0.711078,9.028535,-12.859088,0.956585,0.110184
488000,-0.476446,-0.691924,8.884883,-13.240767,1.597806,0.400261
492000,-0.349553,-0.766145,8.757990,-13.301835,1.887883,0.598734
496000,-0.337582,-0.653617,8.497022,-13.759851,1.307730,0.217055
500000,-0.397437,-0.663194,8.298303,-14.355271,0.422234,0.003314
504000,-0.368707,-0.723049,8.090008,-15.836186,-1.226621,-0.042487
508000,-0.404620,-0.622492,8.118738,-17.210232,-1.623568,0.018581
512000,-0.440533,-0.588974,8.204929,-18.843819,-1.028148,0.537665
516000,-0.232238,-0.577003,7.975086,-20.172064,-0.844942,0.400261
520000,-0.215478,-0.603339,8.097190,-21.088095,-1.257156,-0.073022
524000,-0.241814,-0.543484,7.970297,-21.973591,-1.012881,-0.424167
528000,-0.119710,-0.600945,7.745243,-23.866720,-1.135018,-0.744777
532000,-0.177171,-0.569820,7.448361,-26.340002,-0.432728,-1.324930
536000,-0.304064,-0.574608,7.275979,-29.652981,-1.135018,-1.874548
540000,-0.320823,-0.584185,7.311892,-32.981224,-1.898377,-1.981419
544000,-0.251391,-0.550666,7.175423,-36.202599,-2.722805,-2.225693
548000,-0.248997,-0.548272,6.974309,-39.744583,-4.264789,-2.149358
552000,-0.213084,-0.565032,6.387730,-44.019390,-7.455629,-3.004319
556000,-0.143652,-0.486023,5.724536,-49.744583,-11.272423,-3.447068
560000,-0.241814,-0.435745,5.130774,-57.897255,-17.333492,-4.683709
564000,-0.162806,-0.493206,4.824317,-66.920158,-20.188454,-5.538671
568000,-0.150835,-0.421380,4.496311,-77.836189,-23.608301,-5.935617
572000,0.028730,-0.526724,3.998317,-88.859085,-25.211355,-6.821113
576000,0.227449,-0.533907,3.646369,-100.004128,-27.226622,-7.660808
580000,0.167594,-0.605733,3.232172,-112.431602,-28.997614,-8.286762
584000,0.222661,-0.691924,2.911349,-123.668243,-30.844942,-9.844014
588000,0.169988,-0.866701,2.451663,-137.759857,-34.341125,-10.714244
592000,0.232238,-0.988805,2.063802,-150.996506,-32.417461,-11.004320
596000,0.251391,-1.233014,1.747767,-165.378174,-30.035782,-11.004320
600000,0.383072,-1.505953,1.295263,-180.324738,-28.280056,-10.958518
604000,0.536301,-1.649605,1.321599,-195.469788,-23.913645,-11.477602
608000,0.627281,-1.941698,1.139640,-211.820923,-20.936544,-11.767678
612000,0.900220,-2.255338,0.984017,-227.057571,-20.722805,-12.668442
616000,1.022324,-2.559402,0.955287,-242.630081,-19.379293,-14.408900
620000,0.888249,-2.947262,1.067814,-257.439240,-15.959446,-15.004320
624000,0.770933,-3.349488,0.873884,-271.179688,-19.058683,-16.271496
628000,0.952892,-3.746926,0.902614,-284.233124,-14.585401,-16.760044
632000,0.689530,-4.311957,1.108515,-297.256012,-11.913645,-17.050119
636000,0.253785,-4.692636,1.204283,-308.019379,-11.012881,-16.958517
640000,0.263362,-5.240908,1.170765,-317.271301,-9.211354,-15.324930
644000,0.011971,-5.688623,1.130063,-325.591888,-11.302958,-13.920350
648000,-0.174777,-6.133945,0.718261,-333.546112,-17.089216,-13.233328
652000,-0.222661,-6.639122,0.395043,-342.401062,-22.081583,-11.538671
656000,-0.404620,-7.230489,-0.043096,-351.622437,-27.470896,-10.164625
660000,-0.433351,-7.692570,-0.371101,-360.798004,-31.730438,-8.256227
664000,0.059855,-8.288726,-0.749385,-370.859070,-40.112118,-7.202793
668000,0.486023,-8.746018,-0.639252,-380.813263,-42.371658,-6.454701
672000,0.507571,-9.294291,-0.138864,-390.248383,-47.837307,-6.454701
676000,0.588974,-9.816227,0.378284,-396.736938,-55.654102,-6.286762
680000,0.675165,-10.328587,0.921768,-400.736938,-62.386929,-5.859281
684000,0.794875,-10.881647,1.393425,-402.935425,-66.906006,-4.515770
688000,0.684742,-11.305421,1.824382,-404.065186,-72.447990,-3.920350
692000,0.687136,-11.767501,2.286463,-404.492676,-76.035782,-2.454701
696000,0.610521,-12.100295,2.748544,-404.233124,-79.913643,-1.095922
700000,0.814029,-12.531252,3.256114,-402.477386,-84.035782,0.003314
704000,0.900220,-12.713211,3.720589,-400.233124,-86.463257,1.255223
708000,0.641646,-12.986150,4.043807,-398.034637,-89.547226,2.781940
712000,0.605733,-13.213599,4.508282,-395.011749,-92.127380,4.079650
716000,0.459687,-13.433866,4.929661,-390.645325,-91.409821,6.675070
720000,0.383072,-13.503298,5.501875,-384.920135,-91.043411,9.591100
724000,0.368707,-13.591883,6.131551,-377.378174,-90.646461,12.568199
728000,0.478840,-13.587094,6.528988,-370.614807,-90.875473,14.873543
732000,0.402226,-13.565547,6.758832,-363.271301,-90.402191,17.285757
736000,0.615310,-13.658920,6.885724,-356.019379,-87.959442,19.652170
740000,0.902614,-13.670892,7.067683,-349.561371,-85.425095,21.606369
744000,1.089362,-13.685257,7.335834,-342.202576,-79.394554,23.865910
748000,1.031901,-13.632585,7.400477,-335.057556,-72.295319,25.835377
752000,0.847547,-13.570335,7.560889,-327.469757,-66.844940,27.530033
756000,0.847547,-13.579912,7.797915,-319.194946,-60.921280,29.591101
760000,0.792481,-13.532028,7.814674,-311.225494,-55.486164,31.652168
764000,0.938527,-13.529634,7.845799,-303.515564,-49.928913,33.194153
768000,1.070208,-13.436260,7.754819,-295.194946,-42.463264,34.308659
772000,0.993594,-13.541605,7.558495,-286.965942,-34.860210,35.255222
776000,0.799663,-13.407530,7.285556,-280.798004,-28.860210,36.155987
780000,0.430956,-13.462596,7.338228,-275.256012,-23.623568,37.285759
784000,0.023942,-13.589489,7.568071,-267.439240,-20.799141,38.186520
788000,-0.289698,-13.582306,7.738060,-258.492676,-22.249523,40.140720
792000,-0.124498,-13.560759,8.228871,-248.798019,-21.974712,42.171253
796000,-0.090980,-13.548787,8.595184,-236.095734,-21.669371,43.759041
800000,-0.174777,-13.496115,9.016563,-222.080475,-21.928911,44.384995
804000,-0.799663,-13.893553,8.805874,-209.027039,-24.799141,47.743774
808000,0.514753,-12.969391,9.301474,-192.080475,-14.524332,49.026215
812000,-0.746991,-13.232753,8.796297,-173.698792,-18.386927,52.354462
816000,-0.129287,-12.887988,8.688558,-158.599548,-21.287691,54.888809
820000,0.227449,-12.646173,8.746018,-143.179703,-14.646469,57.255222
824000,0.318429,-12.332533,7.917625,-128.477417,-13.822042,58.568199
828000,0.440533,-12.129025,6.981492,-114.798019,-7.837308,59.881176
832000,0.636858,-11.777079,6.246472,-103.973587,-2.738072,60.705605
836000,0.775721,-11.528081,5.303157,-94.798019,-1.898377,60.888809
840000,1.053449,-11.238382,4.644751,-86.309471,-0.478530,60.537666
844000,1.142034,-10.975020,4.000711,-81.179695,-1.150285,58.873543
848000,1.400608,-10.790668,3.093309,-74.843819,0.315363,57.636902
852000,1.472434,-10.376471,2.123657,-72.049927,-0.631201,55.056751
856000,1.642422,-10.302250,1.541866,-70.324738,-1.745705,52.278126
860000,1.845930,-10.117896,1.007959,-68.538475,-3.638835,49.377361
864000,1.826776,-9.931149,0.598550,-67.866722,-8.096850,45.102551
868000,1.879448,-9.921572,0.172383,-67.775116,-9.119752,41.957512
872000,1.690306,-9.868899,-0.122104,-68.324738,-11.608301,38.812473
876000,1.551443,-9.852140,-0.289698,-69.408707,-15.364026,35.484230
880000,1.314417,-9.938332,-0.059855,-69.790382,-17.730438,32.965145
884000,0.952892,-10.012551,0.153229,-69.652977,-20.341125,30.934612
888000,0.751779,-10.139444,0.409408,-68.813286,-23.440363,29.865910
892000,0.818817,-10.156203,0.531513,-66.874352,-23.394560,29.056749
896000,0.646434,-10.283096,0.691924,-65.943054,-23.302958,28.552933
900000,0.497994,-10.333375,0.893037,-64.614815,-24.035782,27.911713
904000,0.462081,-10.412383,1.149217,-62.813286,-22.142653,28.171253
908000,0.433351,-10.539276,1.467646,-60.126259,-20.310591,28.140718
912000,0.469264,-10.546458,1.604115,-57.561375,-18.020515,28.339193
916000,0.411803,-10.522516,1.771709,-54.110996,-15.364026,28.552933
920000,0.387861,-10.551247,1.671153,-50.095726,-13.883110,28.827742
924000,0.490811,-10.527305,1.522712,-46.736950,-12.692270,28.507132
928000,0.706290,-10.409989,1.503559,-43.622444,-10.906011,28.049116
932000,0.641646,-10.359711,1.209072,-40.736950,-9.806774,27.743773
936000,0.706290,-10.249578,1.113304,-37.164429,-8.447996,26.980413
940000,0.924162,-10.263943,0.995988,-33.362904,-7.394560,26.003315
944000,0.979228,-10.251971,0.919373,-30.004124,-6.814407,24.675070
948000,1.017536,-10.134656,0.505177,-27.317102,-5.715171,22.812475
952000,1.019930,-10.149021,0.220267,-25.439240,-3.989980,21.392628
956000,1.029507,-10.058042,-0.004788,-24.034658,-3.226621,19.667437
960000,0.864307,-10.077195,-0.260968,-23.378170,-5.196087,18.201788
964000,0.931344,-10.074800,-0.196325,-22.859087,-6.646469,16.522398
968000,0.859518,-10.196905,-0.035913,-21.958323,-7.791507,14.934611
972000,0.881066,-10.141838,-0.047884,-21.072826,-7.593033,13.820107
976000,0.715866,-10.194510,0.045490,-19.027025,-7.348759,12.476596
980000,0.457293,-10.208876,0.146046,-18.202599,-9.715171,11.270490
984000,0.404620,-10.242394,0.356736,-17.149162,-9.073950,10.919344
988000,0.402226,-10.247183,0.301669,-15.286569,-7.348759,10.675070
992000,0.320823,-10.204087,0.368707,-14.004125,-7.730438,10.323924
996000,0.308852,-10.160992,0.414197,-13.164432,-6.722805,9.896443
1000000,0.256180,-10.204087,0.378284,-11.820919,-5.196087,10.110184
1004000,0.251391,-10.156203,0.277727,-10.614813,-3.593034,9.957512
1008000,0.246603,-9.967062,0.270545,-9.408706,-2.112118,9.682703
1012000,0.107739,-9.967062,0.196325,-7.775118,-1.043415,9.255222
1016000,0.138864,-9.885659,0.047884,-6.416339,0.300096,9.010947
1020000,0.246603,-9.713276,-0.009577,-5.179698,1.475669,8.843008
1024000,0.189142,-9.706094,-0.169988,-4.813286,2.177959,7.667436
1028000,0.177171,-9.708488,-0.282516,-3.408705,2.254295,6.904078
1032000,0.301669,-9.607931,-0.318429,-2.798018,2.284829,5.896444
1036000,0.478840,-9.579201,-0.189142,-1.988858,3.521470,4.140719
1040000,0.375890,-9.507375,-0.258574,-1.439240,6.086356,3.102551
1044000,0.110133,-9.595961,-0.337582,0.026409,6.758111,2.400261
1048000,0.134075,-9.543288,-0.466869,1.354653,6.468035,1.178887
1052000,0.167594,-9.612720,-0.660800,2.453890,5.719944,0.064383
1056000,0.112527,-9.595961,-0.739808,2.591295,5.506203,-1.431800
1060000,0.186748,-9.519346,-0.928950,2.087478,5.475669,-2.821113
1064000,0.124498,-9.651027,-0.878672,2.576027,5.445135,-4.011953
1068000,-0.007183,-9.682152,-1.022324,2.347020,5.948951,-4.561571
1072000,-0.198719,-9.672575,-1.070208,1.736333,5.292463,-4.989052
1076000,-0.574608,-9.734824,-1.070208,1.522592,4.406967,-4.760045
1080000,-0.617704,-9.706094,-1.079785,1.400455,2.926050,-4.347831
1084000,-0.737414,-9.770737,-0.826000,1.186714,1.414600,-3.981419
1088000,-0.804452,-9.832987,-0.823605,1.324119,1.552005,-3.095922
1092000,-0.893037,-9.821015,-0.778116,1.415722,1.781012,-1.905083
1096000,-0.936133,-9.765948,-0.739808,1.598928,1.628341,-0.912716
1100000,-0.854730,-9.789890,-0.818817,1.675264,1.506203,0.171253
1104000,-0.921768,-9.698911,-0.672771,1.843203,1.689409,1.056749
1108000,-0.878672,-9.775525,-0.902614,2.163814,1.170325,1.820108
1112000,-0.785298,-9.619903,-0.919373,1.827936,1.460402,2.705604
1116000,-0.708684,-9.636662,-1.003170,0.942440,2.864982,3.163620
1120000,-0.694318,-9.548077,-1.041478,0.545493,3.032921,3.713238
1124000,-0.663194,-9.447520,-1.060631,0.240150,2.544371,3.789574
1128000,-0.627281,-9.516952,-1.101333,-0.141530,2.055821,3.591101
1132000,-0.469264,-9.449914,-0.988805,-0.492675,1.338264,3.545299
1136000,-0.462081,-9.394848,-1.017536,-0.798018,1.460402,3.072016
1140000,-0.438139,-9.397242,-0.938527,-1.057560,1.017653,2.675070
1144000,-0.268151,-9.368511,-0.902614,-1.194965,0.468035,1.682703
1148000,-0.256180,-9.351752,-0.787692,-0.614812,-0.341125,0.659803
1152000,-0.359130,-9.454702,-0.663194,0.118012,-1.058682,0.155986
1156000,-0.311246,-9.466674,-0.438139,1.125646,-1.073950,-0.576838
1160000,-0.433351,-9.555259,-0.371101,2.118012,-1.455629,-1.294396
1164000,-0.253785,-9.607931,-0.215478,3.812669,-1.531965,-1.691342
1168000,-0.354342,-9.619903,-0.239420,5.140913,-0.585400,-2.240961
1172000,-0.414197,-9.682152,-0.335188,6.743966,-2.081583,-2.622640
1176000,-0.500388,-9.653421,-0.550666,8.056944,-1.272423,-2.790579
1180000,-0.538695,-9.651027,-0.814029,8.453890,-0.600667,-2.439434
1184000,-0.524330,-9.694122,-0.995988,8.194348,0.376432,-2.088289
1188000,-0.550666,-9.679757,-1.005565,7.751600,0.681776,-1.996686
1192000,-0.545878,-9.737218,-1.120486,6.957707,1.078722,-1.630274
1196000,-0.512359,-9.619903,-1.206678,5.965341,0.788646,-1.263861
1200000,-0.567426,-9.579201,-1.122881,4.820302,0.788646,-1.065388
1204000,-0.500388,-9.595961,-1.237802,3.980608,0.773379,-0.714243
1208000,-0.584185,-9.643845,-1.268927,3.293585,0.605440,-0.256228
1212000,-0.507571,-9.524135,-1.240196,2.224883,0.635974,-0.042487
1216000,-0.610521,-9.694122,-1.055843,1.507325,0.132157,0.446062
1220000,-0.529119,-9.662998,-0.890643,0.881371,-0.371659,0.583467
1224000,-0.344765,-9.751583,-0.840365,0.438623,-1.211354,0.400261
1228000,-0.287304,-9.670180,-0.881066,0.423356,-1.806774,0.110184
1232000,-0.282516,-9.689334,-0.895431,0.392821,-2.142652,-0.149358
1236000,-0.146046,-9.643845,-0.895431,0.392821,-1.425095,-0.714243
1240000,-0.196325,-9.612720,-1.005565,0.102745,-1.501431,-1.141724
1244000,-0.210690,-9.662998,-0.926556,-0.385804,-1.531965,-1.813480
1248000,-0.122104,-9.653421,-1.058237,-0.492675,-1.470896,-2.408900
1252000,-0.083797,-9.636662,-0.921768,-0.370538,-1.760972,-3.004319
1256000,-0.069432,-9.742006,-0.782904,-0.080461,-1.089217,-3.569205
1260000,-0.134075,-9.710882,-0.711078,0.362287,-0.447995,-3.798213
1264000,-0.196325,-9.753978,-0.725443,0.850837,-0.218988,-3.935617
1268000,-0.325611,-9.789890,-0.758962,1.049310,-0.188453,-4.011953
1272000,-0.378284,-9.806650,-0.629675,1.140913,-0.799140,-3.569205
1276000,-0.270545,-9.818622,-0.421380,1.675264,-0.570133,-3.645541
1280000,-0.201113,-9.856929,-0.481235,2.316485,-0.310591,-3.385999
1284000,-0.177171,-9.742006,-0.579397,3.049310,-0.341125,-3.508136
1288000,-0.052672,-9.725247,-0.610521,3.278317,-0.234255,-3.508136
1292000,-0.107739,-9.765948,-0.663194,3.690531,-0.234255,-3.569205
1296000,-0.071826,-9.753978,-0.806846,3.889004,0.651241,-3.340197
1300000,-0.198719,-9.662998,-1.079785,3.415722,1.490936,-3.477602
1304000,-0.143652,-9.610326,-1.118092,2.759233,1.414600,-3.340197
1308000,-0.131681,-9.674969,-1.101333,1.904272,1.490936,-3.401266
1312000,-0.179565,-9.718064,-1.084573,1.278317,1.032921,-3.416533
1316000,-0.311246,-9.813833,-0.909797,0.942440,0.468035,-3.370732
1320000,-0.440533,-9.782708,-1.048660,0.347020,0.849715,-2.866915
1324000,-0.500388,-9.765948,-0.931344,-0.065194,1.155058,-2.317297
1328000,-0.581791,-9.821015,-0.933739,-0.217866,1.002386,-1.920350
1332000,-0.615310,-9.849746,-0.845153,-0.492675,0.269562,-1.355464
1336000,-0.620098,-9.847352,-0.713472,-0.263667,0.071089,-0.805846
1340000,-0.560243,-9.856929,-0.543484,0.163814,0.269562,-0.332564
1344000,-0.478840,-9.883265,-0.378284,0.545493,0.315363,0.155986
1348000,-0.438139,-9.813833,-0.426168,1.705798,0.697043,0.415528
1352000,-0.385466,-9.864111,-0.483629,2.820302,0.727577,0.614001
1356000,-0.378284,-9.813833,-0.648829,3.507325,0.987119,0.736139
1360000,-0.234632,-9.773131,-0.672771,4.163814,1.445134,0.629268
1364000,-0.246603,-9.706094,-0.663194,4.606562,1.613073,0.797207
1368000,-0.153229,-9.682152,-0.766145,4.911905,1.567272,0.568200
1372000,-0.100556,-9.720459,-0.739808,5.064577,0.742844,-0.042487
1376000,0.019154,-9.653421,-0.694318,5.354653,-0.127385,-0.698976
1380000,0.014365,-9.564836,-0.919373,5.354653,-1.028148,-1.340197
1384000,-0.004788,-9.550470,-0.902614,4.805035,-0.951812,-1.828747
1388000,-0.105345,-9.445126,-1.165976,4.133279,-1.028148,-2.027220
1392000,-0.404620,-9.469068,-1.043872,2.927173,-3.989980,-2.561571
1396000,-0.136469,-9.504981,-0.926556,2.682898,-2.417461,-2.531037
1400000,-0.301669,-9.514558,-0.806846,1.904272,-1.730438,-2.531037
1404000,-0.299275,-9.533711,-0.725443,1.889004,-2.982346,-2.637907
1408000,-0.210690,-9.550470,-0.536301,2.087478,-1.928911,-2.927984
1412000,-0.196325,-9.519346,-0.675165,2.392821,-0.631201,-2.912716
1416000,-0.301669,-9.538500,-0.998382,2.240149,1.216127,-2.882182
1420000,-0.383072,-9.497798,-1.173159,1.980608,1.796279,-2.668442
1424000,-0.531513,-9.600749,-1.024718,1.263050,0.651241,-2.439434
1428000,-0.366313,-9.691729,-0.897826,0.728699,0.208493,-2.546304
1432000,-0.502782,-9.641450,-0.902614,0.576027,0.055821,-2.393632
1436000,-0.641646,-9.749189,-0.888249,1.064577,-0.280056,-1.782945
1440000,-0.708684,-9.770737,-0.912191,1.049310,-0.860209,-1.034854
1444000,-0.687136,-9.828198,-0.847547,0.743966,-0.463263,-0.378365
1448000,-0.679953,-9.797073,-0.902614,0.148546,0.025287,0.629268
1452000,-0.689530,-9.789890,-0.957681,-0.263667,-0.936545,1.392627
1456000,-0.612916,-9.828198,-0.833182,-0.630080,-1.501431,1.957513
1460000,-0.531513,-9.830592,-0.730232,-0.798018,-1.928911,2.843009
1464000,-0.390255,-9.828198,-0.615310,-0.538476,-1.913644,3.133085
1468000,-0.146046,-9.844957,-0.720655,-0.385804,-1.364026,3.178887
1472000,-0.045490,-9.773131,-0.821211,-0.324736,-0.112117,3.041482
1476000,-0.112527,-9.744401,-0.888249,-0.340003,0.788646,2.690337
1480000,-0.148441,-9.734824,-0.895431,-0.706415,0.162692,2.384994
1484000,-0.095768,-9.694122,-0.864307,-1.194965,-0.066316,1.881177
1488000,-0.059855,-9.674969,-0.739808,-1.607178,-0.341125,1.209421
1492000,-0.076614,-9.634268,-0.529119,-0.996492,-1.196087,0.919345
1496000,-0.131681,-9.634268,-0.526724,-0.309469,-1.883110,0.552933
1500000,-0.105345,-9.605537,-0.421380,0.499691,-2.310591,-0.027220
1504000,-0.107739,-9.662998,-0.656011,1.339386,-1.638835,-0.515770
1508000,-0.155623,-9.636662,-0.770933,1.522592,-1.196087,-0.744777
1512000,-0.179565,-9.641450,-0.905008,1.537859,-1.715171,-0.821113
1516000,-0.292093,-9.622296,-0.653617,1.522592,-1.699904,-1.309663
1520000,-0.296881,-9.725247,-0.672771,1.415722,-1.409827,-1.172258
1524000,-0.229843,-9.691729,-0.660800,1.721066,-0.936545,-1.019587
1528000,-0.186748,-9.672575,-0.605733,1.644730,-0.677003,-0.882182
1532000,-0.169988,-9.677363,-0.608127,1.492058,0.529104,-0.958518
1536000,-0.239420,-9.701305,-0.809240,1.110379,1.521470,-0.714243
1540000,-0.265756,-9.703699,-0.861913,0.774501,2.284829,-0.363098
1544000,-0.186748,-9.686940,-0.802058,0.377554,2.177959,-0.042487
1548000,-0.234632,-9.718064,-0.636858,-0.049927,1.842081,0.033849
1552000,-0.232238,-9.708488,-0.615310,0.056943,2.071089,0.247589
1556000,-0.227449,-9.665392,-0.591368,-0.034660,2.177959,0.614001
1560000,-0.229843,-9.694122,-0.567426,0.133279,2.040554,0.797207
1564000,-0.093374,-9.677363,-0.538695,0.514959,2.697043,0.812474
1568000,-0.148441,-9.660604,-0.670376,0.698165,3.399333,0.781940
1572000,-0.203507,-9.636662,-0.828394,0.408088,3.399333,0.766673
1576000,-0.110133,-9.591172,-0.814029,0.179081,3.460402,0.568200
1580000,-0.162806,-9.598354,-0.770933,0.270684,3.155058,0.247589
1584000,-0.143652,-9.634268,-0.732626,0.347020,2.437501,-0.134090
1588000,-0.071826,-9.643845,-0.634463,0.728699,2.147424,-0.637907
1592000,0.062249,-9.579201,-0.550666,1.339386,2.300096,-1.431800
1596000,0.009577,-9.612720,-0.560243,2.148547,1.826814,-2.088289
1600000,-0.011971,-9.684546,-0.548272,2.728699,1.979486,-2.851648
1604000,0.057461,-9.646238,-0.670376,3.461524,1.857348,-4.011953
1608000,-0.038307,-9.703699,-0.632069,3.583661,1.063455,-4.561571
1612000,-0.088585,-9.744401,-0.672771,4.148547,0.498570,-5.416533
1616000,-0.198719,-9.753978,-0.478840,4.606562,0.010020,-5.492869
1620000,-0.210690,-9.816227,-0.555455,4.911905,0.040554,-5.889815
1624000,-0.375890,-9.844957,-0.653617,5.079844,-0.463263,-5.630273
1628000,-0.421380,-9.895236,-0.711078,4.866104,-0.860209,-5.050121
1632000,-0.442927,-9.883265,-0.617704,5.003509,-0.677003,-4.683709
1636000,-0.488417,-9.859323,-0.758962,4.911905,-0.432728,-3.966152
1640000,-0.356736,-9.911995,-0.940921,4.453890,-0.356392,-3.508136
1644000,-0.442927,-9.871294,-0.974440,4.118012,-0.234255,-3.172258
1648000,-0.591368,-9.880871,-1.055843,3.461524,0.590173,-2.256228
1652000,-0.478840,-9.959879,-1.201889,2.194348,2.040554,-1.630274
1656000,-0.629675,-9.844957,-1.340753,0.881371,1.964218,-0.882182
1660000,-0.670376,-9.852140,-1.256956,-0.462140,1.384066,-0.057755
1664000,-0.644040,-9.837775,-1.163582,-1.637713,1.078722,0.247589
1668000,-0.636858,-9.878476,-1.048660,-2.385804,0.773379,0.888810
1672000,-0.663194,-9.849746,-0.814029,-2.736950,-0.005247,1.301024
1676000,-0.629675,-9.852140,-0.612916,-2.767484,0.162692,1.697971
1680000,-0.612916,-9.852140,-0.507571,-2.355270,0.239028,2.491864
1684000,-0.488417,-9.837775,-0.383072,-1.698782,-0.157919,2.476597
1688000,-0.452504,-9.768343,-0.569820,-1.210232,-0.051049,2.980413
1692000,-0.296881,-9.715671,-0.531513,-0.569010,0.055821,2.659803
1696000,-0.232238,-9.674969,-0.572214,-0.172064,1.246661,2.568200
1700000,-0.244209,-9.694122,-0.545878,0.377554,1.429867,2.522398
1704000,-0.229843,-9.634268,-0.610521,0.606562,1.399333,2.461329
1708000,-0.217872,-9.686940,-0.600945,0.957707,1.582539,2.171253
1712000,-0.193930,-9.677363,-0.658405,1.339386,1.613073,2.125452
1716000,-0.129287,-9.586384,-0.667982,1.736333,1.582539,1.545299
1720000,-0.088585,-9.593566,-0.725443,2.240149,0.712310,1.087284
1724000,-0.105345,-9.591172,-0.682347,1.950073,0.513837,0.720871
1728000,-0.153229,-9.567230,-0.660800,1.934806,1.261928,-0.057755
1732000,-0.105345,-9.509769,-0.701501,1.904272,0.941318,-0.332564
1736000,-0.150835,-9.583989,-0.541090,1.904272,0.055821,-0.882182
1740000,-0.239420,-9.555259,-0.440533,2.698165,-0.188453,-1.111190
1744000,-0.112527,-9.598354,-0.296881,3.430989,-0.677003,-1.569205
1748000,-0.126893,-9.662998,-0.375890,3.797401,-1.302957,-1.859281
1752000,-0.217872,-9.557653,-0.371101,3.919539,-0.066316,-1.782945
1756000,-0.134075,-9.579201,-0.500388,4.423356,0.223760,-1.721877
1760000,-0.167594,-9.643845,-0.859518,4.102745,0.712310,-2.073022
1764000,-0.349553,-9.583989,-0.940921,3.675264,0.971852,-2.088289
1768000,-0.323217,-9.636662,-0.976834,2.667631,0.513837,-1.798213
1772000,-0.356736,-9.660604,-0.981623,1.476791,1.216127,-1.676075
1776000,-0.421380,-9.734824,-1.036689,1.064577,1.399333,-1.477602
1780000,-0.514753,-9.818622,-0.984017,0.591295,0.742844,-1.202793
1784000,-0.591368,-9.842564,-0.878672,-0.049927,0.483302,-0.897449
1788000,-0.653617,-9.849746,-0.888249,-0.538476,-0.112117,-0.531037
1792000,-0.679953,-9.844957,-0.758962,-0.843820,-0.524331,0.140719
1796000,-0.696713,-9.844957,-0.603339,-0.614812,-0.585400,0.797207
1800000,-0.646434,-9.842564,-0.517148,-0.492675,-0.539598,1.545299
1804000,-0.500388,-9.852140,-0.481235,-0.034660,-0.799140,2.033848
1808000,-0.256180,-9.694122,-0.656011,-0.019392,0.605440,2.049116
1812000,-0.260968,-9.694122,-0.696713,-0.004125,2.162692,1.881177
1816000,-0.294487,-9.574412,-0.859518,-0.324736,2.956585,1.820108
1820000,-0.222661,-9.607931,-0.952892,-0.614812,2.910783,1.468963
1824000,-0.332794,-9.603143,-0.916979,-0.477408,2.742844,1.163620
1828000,-0.320823,-9.615114,-0.957681,-0.706415,2.025287,0.797207
1832000,-0.239420,-9.629479,-0.876278,-0.492675,1.139791,0.430795
1836000,-0.213084,-9.689334,-0.718261,-0.675881,0.635974,-0.042487
1840000,-0.306458,-9.622296,-0.737414,-0.828552,-0.005247,-0.408900
1844000,-0.390255,-9.722853,-0.667982,-0.813286,-0.661736,-0.637907
1848000,-0.495600,-9.691729,-0.658405,-0.645346,-2.035782,-0.744777
1852000,-0.450110,-9.763555,-0.586579,-0.416339,-3.012881,-0.882182
1856000,-0.505177,-9.739613,-0.486023,-0.340003,-3.165553,-0.790579
1860000,-0.359130,-9.823410,-0.344765,0.163814,-3.135018,-0.271495
1864000,-0.296881,-9.832987,-0.433351,0.789768,-2.493797,-0.149358
1868000,-0.272939,-9.840169,-0.359130,1.507325,-1.638835,0.125452
1872000,-0.241814,-9.842564,-0.373495,1.904272,-0.860209,0.323925
1876000,-0.213084,-9.792285,-0.478840,2.408089,-0.218988,0.705604
1880000,-0.299275,-9.797073,-0.605733,2.179081,0.147424,0.736139
1884000,-0.335188,-9.698911,-0.600945,2.041676,0.651241,0.904078
1888000,-0.320823,-9.787497,-0.512359,1.705798,0.254295,1.453696
1892000,-0.306458,-9.627085,-0.507571,1.583661,0.345898,1.530032
1896000,-0.246603,-9.682152,-0.639252,1.858470,0.147424,1.835375
1900000,-0.244209,-9.672575,-0.684742,1.721066,-0.234255,1.850642
1904000,-0.210690,-9.689334,-0.735020,1.308852,-0.417461,1.865910
1908000,-0.203507,-9.574412,-0.754174,0.911905,-0.478530,1.850642
1912000,-0.239420,-9.653421,-0.797269,0.728699,-0.860209,1.682703
1916000,-0.227449,-9.634268,-0.866701,0.041676,-1.318224,1.682703
1920000,-0.174777,-9.651027,-0.646434,0.056943,-1.577766,1.728505
1924000,-0.251391,-9.732430,-0.481235,0.179081,-1.364026,1.514765
1928000,-0.162806,-9.751583,-0.299275,0.453890,-1.012881,1.362093
1932000,-0.035913,-9.854534,-0.292093,1.461524,-0.539598,0.934612
1936000,0.004788,-9.809045,-0.337582,2.179081,0.147424,0.232322
1940000,-0.074220,-9.720459,-0.447716,3.201982,1.155058,-0.393632
1944000,-0.174777,-9.761160,-0.565032,3.904272,1.063455,-0.760045
1948000,-0.114922,-9.730036,-0.730232,4.652363,0.834447,-1.630274
1952000,-0.203507,-9.691729,-0.703895,4.789768,0.681776,-1.844014
1956000,-0.272939,-9.629479,-0.878672,4.469157,0.406966,-2.210426
1960000,-0.258574,-9.658210,-0.859518,4.240149,-0.386927,-2.393632
1964000,-0.392649,-9.703699,-0.902614,3.827936,-0.295324,-2.332564
1968000,-0.445322,-9.629479,-0.933739,3.614195,-0.402194,-2.302029
1972000,-0.557849,-9.667787,-0.986411,3.018775,-0.982347,-1.935617
1976000,-0.569820,-9.643845,-0.897826,2.560760,-1.226621,-1.462335
1980000,-0.603339,-9.691729,-0.912191,2.041676,-1.119751,-0.729510
1984000,-0.378284,-9.682152,-0.897826,1.980608,-1.119751,-0.576838
1988000,-0.407014,-9.576807,-0.981623,1.339386,-0.280056,-0.271495
1992000,-0.399832,-9.533711,-0.986411,1.034043,0.803913,0.140719
1996000,-0.363919,-9.521740,-0.979228,0.179081,1.032921,0.384994
