time_us,ax,ay,az,gx,gy,gz
0,0.809240,-0.435745,8.995016,-0.065194,-0.509064,-0.424167
4000,0.802058,-0.395043,8.956709,0.576027,-1.165553,-0.668442
8000,0.708684,-0.442927,8.985439,1.186714,-2.295324,-0.973785
12000,0.620098,-0.502782,8.947132,1.614195,-3.394560,-0.790579
16000,0.646434,-0.493206,8.935161,2.209615,-4.096850,-0.668442
20000,0.581791,-0.493206,9.030929,2.209615,-4.997613,-0.485235
24000,0.581791,-0.529119,8.992621,2.285951,-4.799140,0.049116
28000,0.665588,-0.565032,8.916007,2.255417,-3.654102,0.690337
32000,0.797269,-0.421380,8.997410,2.056943,-2.295324,1.163620
36000,0.816423,-0.464475,8.856153,2.209615,-0.386927,1.575833
40000,0.845153,-0.387861,8.825027,2.087478,2.208493,2.094917
44000,0.931344,-0.328006,8.678981,1.705798,4.101623,2.339192
48000,0.960075,-0.282516,8.602366,0.606562,5.964219,2.644536
52000,1.089362,-0.256180,8.480263,0.270684,7.185593,2.812474
56000,1.103727,-0.201113,8.418014,-0.065194,7.781012,2.705604
60000,1.086968,-0.169988,8.441956,-0.355270,7.765746,2.369726
64000,1.206678,-0.146046,8.439561,-0.553744,7.475669,2.018581
68000,1.139640,-0.248997,8.403648,-0.874354,6.254295,1.392627
72000,1.165976,-0.203507,8.307879,-1.301835,4.422234,1.056749
76000,1.237802,-0.146046,8.525752,-1.500308,2.330631,0.461329
80000,1.297657,-0.177171,8.609550,-1.683514,-0.142652,-0.485235
84000,1.292869,-0.193930,8.592790,-1.393438,-2.112118,-1.156991
88000,1.302446,-0.227449,8.717288,-0.706415,-3.745705,-1.874548
92000,1.367089,-0.205901,8.688558,-0.294202,-4.615934,-1.935617
96000,1.211466,-0.246603,8.674192,0.469157,-4.799140,-2.378365
100000,1.333570,-0.167594,8.540117,0.408088,-4.585400,-2.515770
104000,1.352724,-0.213084,8.561666,0.377554,-3.898377,-2.561571
108000,1.393425,-0.215478,8.456321,0.316485,-3.257156,-2.469968
112000,1.357512,-0.205901,8.439561,-0.233133,-2.478530,-2.393632
116000,1.568202,-0.158017,8.401254,-0.813286,-1.180820,-2.744777
120000,1.565808,-0.160412,8.329428,-1.607178,0.300096,-3.111190
124000,1.553837,-0.110133,8.252813,-2.370538,1.613073,-3.279129
128000,1.596933,-0.100556,8.358158,-2.798018,2.574905,-3.615006
132000,1.558625,-0.167594,8.329428,-3.439240,2.529104,-4.118823
136000,1.582567,-0.186748,8.473080,-3.912522,2.376432,-4.515770
140000,1.628057,-0.158017,8.508993,-4.187331,1.674142,-5.141724
144000,1.525106,-0.155623,8.738836,-3.775118,1.475669,-5.508136
148000,1.630451,-0.201113,8.746018,-3.301835,1.078722,-5.584472
152000,1.572991,-0.181959,8.729259,-2.645346,0.941318,-5.981419
156000,1.589750,-0.177171,8.736442,-2.401072,0.635974,-6.500503
160000,1.654393,-0.184354,8.736442,-1.958324,0.254295,-6.897449
164000,1.561020,-0.251391,8.678981,-1.744583,-0.203721,-7.447067
168000,1.493982,-0.335188,8.726865,-1.759850,-1.073950,-7.660808
172000,1.537078,-0.318429,8.755595,-1.805652,-1.440362,-7.950884
176000,1.527501,-0.438139,8.652645,-1.988858,-1.409827,-8.195159
180000,1.493982,-0.359130,8.683769,-2.401072,-1.822041,-8.439434
184000,1.577779,-0.306458,8.616732,-2.736950,-1.501431,-8.302030
188000,1.613692,-0.366313,8.743625,-2.981224,-1.394560,-8.332563
192000,1.613692,-0.356736,8.820239,-3.179698,-1.226621,-8.408899
196000,1.709460,-0.272939,8.779537,-3.256034,-0.967079,-8.439434
200000,1.745373,-0.280122,8.734048,-3.393438,-0.234255,-8.637908
204000,1.826776,-0.313640,8.863335,-3.454507,0.208493,-8.760045
208000,1.944092,-0.282516,8.872911,-3.225499,0.773379,-9.156992
212000,2.013524,-0.325611,8.851364,-3.286568,1.261928,-9.508137
216000,2.075773,-0.270545,8.822633,-2.904888,2.071089,-9.981419
220000,2.207454,-0.258574,8.762778,-2.599545,2.620707,-10.943251
224000,2.262521,-0.191536,8.760384,-2.401072,3.261928,-11.767678
228000,2.336741,-0.167594,8.686164,-2.370538,3.231394,-12.637908
232000,2.327164,-0.165200,8.583213,-2.263667,3.155058,-13.645541
236000,2.209848,-0.158017,8.482656,-2.187331,2.590173,-14.393633
240000,2.322376,-0.177171,8.384495,-2.248400,1.826814,-15.111190
244000,2.327164,-0.198719,8.329428,-2.584278,1.017653,-15.660809
248000,2.375048,-0.174777,8.441956,-2.965957,0.193226,-16.439434
252000,2.425326,-0.181959,8.485051,-3.210232,-0.020514,-16.958517
256000,2.645593,-0.153229,8.516175,-3.286568,0.590173,-17.462334
260000,2.676718,-0.148441,8.453926,-3.317102,1.185592,-18.393631
264000,2.801216,-0.215478,8.477868,-3.194965,1.964218,-19.401266
268000,2.782062,-0.222661,8.473080,-3.439240,2.849715,-20.576838
272000,2.612074,-0.248997,8.439561,-3.668247,3.536737,-21.111189
276000,2.743755,-0.220267,8.585608,-3.881988,3.781013,-21.981419
280000,2.700660,-0.292093,8.532935,-4.065194,3.704677,-22.714243
284000,2.729390,-0.277727,8.520964,-4.080462,3.445134,-23.721876
288000,2.841918,-0.361524,8.580819,-3.790385,3.475669,-24.103556
292000,2.820370,-0.328006,8.664616,-3.881988,3.216127,-25.218060
296000,2.937685,-0.366313,8.808268,-4.110995,2.758112,-26.317295
300000,2.932897,-0.359130,8.836999,-3.927789,2.742844,-27.370731
304000,2.964022,-0.385466,8.784326,-4.110995,2.590173,-28.393631
308000,2.968810,-0.452504,8.789114,-3.714049,2.498570,-29.538670
312000,2.999935,-0.500388,8.626308,-3.912522,3.048188,-30.256227
316000,2.992752,-0.481235,8.647857,-4.462141,3.857348,-31.416533
320000,3.117251,-0.445322,8.547300,-5.194965,4.468035,-32.088287
324000,3.208230,-0.495600,8.597578,-5.836186,5.322997,-33.019585
328000,3.169923,-0.543484,8.801085,-6.477407,5.887883,-34.500504
332000,3.196259,-0.545878,8.736442,-6.767485,5.338264,-35.462334
336000,3.251326,-0.689530,8.810662,-6.355270,6.651241,-36.775311
340000,3.205836,-0.557849,8.798691,-6.507942,7.322997,-37.553936
344000,3.251326,-0.656011,8.887277,-6.630079,7.490936,-38.775311
348000,3.399766,-0.725443,9.085996,-6.233133,8.605439,-39.798210
352000,3.660734,-0.715866,9.023746,-5.362904,8.910783,-41.584473
356000,3.737349,-0.648829,9.071630,-4.782751,8.284829,-44.103554
360000,3.857059,-0.730232,9.255983,-3.820919,7.261929,-46.500504
364000,3.952827,-0.802058,9.188946,-2.569010,7.002387,-49.004318
368000,3.988740,-0.778116,9.107543,-2.141530,7.155058,-52.057755
372000,3.658340,-0.888249,9.090784,-1.042293,6.910783,-54.073021
376000,3.390190,-0.914585,9.097966,0.347020,4.513837,-55.721874
380000,3.272874,-0.854730,9.074024,0.743966,2.529104,-56.744778
384000,3.289633,-0.940921,9.026140,0.896638,2.406966,-57.920349
388000,3.090914,-0.897826,8.911219,1.018775,2.101623,-58.958519
392000,3.069367,-0.998382,8.825027,0.942440,2.834447,-59.111191
396000,3.062184,-0.993594,8.746018,0.484424,3.048188,-59.874546
400000,3.241749,-1.022324,8.753201,0.102745,4.712310,-60.408897
404000,3.342306,-1.015141,8.904037,-0.263667,6.010020,-61.385998
408000,3.485958,-0.974440,8.662222,-0.645346,7.002387,-62.637905
412000,3.442862,-1.058237,8.597578,-0.935423,7.414600,-64.149361
416000,3.435679,-1.103727,8.655039,-1.118629,7.429867,-65.599739
420000,3.344700,-1.120486,8.717288,-1.286568,7.658875,-66.836380
424000,3.318364,-1.213860,8.688558,-1.805652,7.414600,-68.332565
428000,3.213019,-1.211466,8.724471,-2.034660,5.964219,-69.798210
432000,3.172317,-1.316811,8.872911,-2.065194,4.605440,-71.126457
436000,3.136404,-1.350330,8.769960,-1.958324,2.697043,-72.195160
440000,3.148375,-1.410185,8.956709,-1.698782,0.681776,-73.523399
444000,3.167529,-1.448492,9.253590,-1.057560,-0.447995,-74.454704
448000,3.277662,-1.448492,9.351752,-0.187331,-0.264789,-75.523399
452000,3.464410,-1.393425,9.538500,0.591295,0.819180,-76.989052
456000,3.794810,-1.345541,9.538500,1.339386,2.956585,-78.668442
460000,3.909731,-1.352724,9.447520,2.560760,4.849715,-80.958519
464000,3.993528,-1.343147,9.387665,3.659997,7.063455,-83.492867
468000,3.878607,-1.369483,9.306262,4.850837,8.605439,-85.645538
472000,3.708618,-1.403002,9.126697,5.782134,9.506203,-87.874550
476000,3.507505,-1.467646,8.918402,6.637096,9.979486,-89.248596
480000,3.284845,-1.467646,8.834604,7.156180,9.353531,-90.989052
484000,2.997540,-1.575385,8.781932,7.476791,7.368799,-91.920349
488000,2.920926,-1.620875,8.674192,8.056944,5.048188,-92.302032
492000,3.011906,-1.596933,8.671799,8.102745,2.193226,-93.676071
496000,2.829947,-1.678335,8.755595,8.270684,-0.936545,-94.637909
500000,2.832341,-1.644817,8.621520,8.087478,-3.104484,-94.760040
504000,3.035848,-1.632846,8.494628,6.682898,-2.799140,-96.760040
508000,2.806004,-1.800440,8.678981,7.293585,-4.738071,-97.080658
512000,2.736573,-1.788469,8.779537,9.201982,-7.776239,-96.836380
516000,2.949656,-1.661576,8.571242,9.537860,-4.722805,-96.851646
520000,2.947262,-1.628057,8.540117,7.675264,-4.035782,-98.790581
524000,2.975993,-1.556231,8.331821,5.782134,-1.348759,-99.050117
528000,3.145981,-1.482011,8.439561,5.369921,2.819180,-99.844017
532000,3.074155,-1.479617,8.576031,4.392821,5.490936,-101.141724
536000,3.179500,-1.606509,8.468291,3.415722,8.529103,-102.027222
540000,3.186682,-1.553837,8.487445,2.789768,11.307730,-103.340195
544000,3.050213,-1.618480,8.437167,1.659997,12.849714,-104.240959
548000,2.899378,-1.644817,8.566454,0.347020,13.460402,-105.233330
552000,2.937685,-1.695095,8.592790,0.820302,13.032920,-106.576836
556000,2.801216,-1.798046,8.659827,0.774501,13.521470,-107.248596
560000,2.973598,-1.783680,8.791509,1.079844,12.513836,-108.469971
564000,3.198653,-1.805228,8.844181,1.659997,11.063455,-109.950882
568000,3.289633,-1.783680,8.896853,2.102745,9.948951,-112.531036
572000,3.335123,-1.776498,8.683769,2.911905,8.345898,-115.156990
576000,3.256114,-1.793257,8.549694,3.446256,5.918417,-117.569206
580000,3.117251,-1.877054,8.583213,3.812669,4.254295,-119.355461
584000,2.918532,-1.831564,8.470686,3.553127,3.139791,-120.897446
588000,2.837129,-1.891419,8.518570,3.110379,2.422234,-121.767677
592000,2.846706,-1.980005,8.556877,2.408089,2.116890,-122.607368
596000,2.753332,-1.939303,8.389283,2.118012,2.498570,-123.477600
600000,2.609680,-2.025495,8.394072,1.324119,2.422234,-123.721878
604000,2.580950,-2.142811,8.398860,0.988241,2.544371,-123.935616
608000,2.887407,-2.023100,8.374918,-0.049927,5.048188,-124.317299
612000,2.918532,-1.977611,8.425196,-2.187331,8.025287,-125.721878
616000,2.987964,-2.042254,8.599973,-3.149163,11.277195,-126.882179
620000,3.026271,-2.130840,8.657434,-3.103362,14.773378,-128.546310
624000,2.954445,-2.169147,8.820239,-3.072828,16.971851,-130.210419
628000,2.705448,-2.059013,8.748413,-2.920156,18.773378,-132.027222
632000,2.358289,-2.195483,8.674192,-2.477408,20.483301,-132.622635
636000,2.147599,-2.224213,8.482656,-2.294202,21.994753,-133.599731
640000,1.884237,-2.276886,8.226477,-2.828552,22.620707,-133.874542
644000,1.757344,-2.219425,8.125920,-3.500308,23.490936,-133.752411
648000,1.546654,-2.348712,8.008605,-3.820919,22.162691,-133.859283
652000,1.505953,-2.324770,8.101978,-3.607178,19.765745,-133.599731
656000,1.496376,-2.303222,8.243237,-3.607178,17.063456,-133.706604
660000,1.517924,-2.324770,8.180987,-3.317102,15.979485,-133.584473
664000,1.496376,-2.408567,8.178593,-3.439240,15.689409,-133.401260
668000,1.611298,-2.322376,8.224083,-3.927789,16.376432,-132.943253
672000,1.786075,-2.619257,8.276755,-3.500308,21.093988,-132.485229
676000,1.673547,-2.346318,7.625533,-4.859087,18.971851,-133.523407
680000,1.989582,-2.394202,7.721301,-7.118629,17.597805,-134.576843
684000,2.106898,-2.454057,7.864953,-8.706415,18.819180,-135.844009
688000,2.090138,-2.408567,8.039729,-10.630079,19.796280,-137.462341
692000,2.085350,-2.458845,8.353370,-11.714049,20.391699,-138.775314
696000,2.288857,-2.533065,8.386889,-11.729317,23.032921,-140.607376
700000,2.334347,-2.568978,8.291121,-11.759851,25.200859,-142.363098
704000,2.398990,-2.602497,8.200141,-12.492675,27.200859,-144.790573
708000,2.248155,-2.662352,8.090008,-13.591912,29.124523,-146.653168
712000,1.982399,-2.839523,8.046912,-15.133897,29.490936,-147.981415
716000,1.764527,-2.865860,7.936779,-16.920155,29.170324,-149.065384
720000,1.546654,-2.942474,8.085219,-19.118628,29.414600,-149.981415
724000,1.391031,-3.069367,8.116343,-20.843819,29.857347,-150.424164
728000,1.240196,-3.174711,8.056489,-22.263666,31.384066,-150.698975
732000,1.204283,-3.284845,8.099585,-23.439240,33.475670,-150.515762
736000,1.359907,-3.397372,8.384495,-24.569010,35.216125,-150.744781
740000,1.395820,-3.450045,8.446744,-24.920155,37.857349,-151.370728
744000,1.362301,-3.505111,8.523358,-25.561377,40.468037,-151.813477
748000,1.388637,-3.541024,8.992621,-25.744583,42.529102,-152.668442
752000,1.441309,-3.603274,9.157822,-24.233131,44.681774,-153.676071
756000,1.352724,-3.718195,9.337387,-23.790384,47.063454,-155.263855
760000,1.228225,-3.809175,9.265560,-24.126263,49.613071,-156.149353
764000,0.885855,-3.926491,9.392453,-22.904888,50.681774,-157.340195
768000,0.691924,-4.007894,9.612720,-21.500307,50.406967,-158.332565
772000,0.447716,-4.108450,9.746795,-19.469774,50.025288,-158.607376
776000,0.213084,-4.268862,9.684546,-17.271299,49.842079,-158.912720
780000,0.052672,-4.328717,9.538500,-15.271300,49.628342,-158.683701
784000,0.014365,-4.412514,9.406818,-13.210233,49.445133,-158.851654
788000,-0.074220,-4.481946,9.464279,-11.301835,49.109257,-158.836380
792000,-0.354342,-4.575319,9.385271,-9.179698,48.742844,-158.912720
796000,-0.620098,-4.599261,9.313444,-7.057561,47.628342,-158.256226
800000,-0.775721,-4.651934,9.153033,-5.271301,46.635975,-157.324936
804000,-0.758962,-4.572925,9.004593,-3.744583,46.635975,-156.332565
808000,-0.713472,-4.570531,8.932767,-2.736950,47.170326,-155.859283
812000,-0.612916,-4.460398,8.906430,-2.263667,48.513836,-155.721878
816000,-0.596156,-4.517859,8.777143,-2.263667,51.414600,-155.523407
820000,-0.758962,-4.508282,8.573636,-2.736950,53.796280,-155.492874
824000,-0.845153,-4.544195,8.353370,-3.317102,56.773376,-155.431793
828000,-0.909797,-4.532224,8.130709,-4.126263,59.307728,-155.065384
832000,-1.027112,-4.551377,7.812280,-4.859087,60.742844,-155.172256
836000,-1.312023,-4.594473,7.544129,-5.759851,62.788647,-154.439438
840000,-1.400608,-4.572925,7.412448,-7.194965,63.979488,-153.645538
844000,-1.338359,-4.537012,7.309498,-8.324736,63.567272,-153.569199
848000,-1.484405,-4.484340,7.208941,-9.652981,63.826817,-153.324936
852000,-1.575385,-4.458004,7.055712,-10.813286,62.330631,-153.691345
856000,-1.747767,-4.412514,6.993463,-12.278935,60.406967,-154.195160
860000,-1.833959,-4.417302,7.182605,-12.981225,58.712311,-154.347824
864000,-2.049437,-4.462792,7.299921,-13.194964,57.277195,-154.332565
868000,-2.312799,-4.537012,7.534553,-12.630080,55.918415,-153.874542
872000,-2.552219,-4.479551,7.682993,-12.248401,53.704678,-152.943253
876000,-2.856283,-4.513070,7.563283,-12.034659,51.597805,-151.889816
880000,-3.059790,-4.527435,7.642292,-11.866721,50.895515,-150.424164
884000,-3.349488,-4.510676,7.268796,-12.507943,48.605438,-148.363098
888000,-3.473987,-4.529830,7.230489,-12.950690,47.399334,-145.798218
892000,-3.761291,-4.462792,7.326257,-14.065194,45.170326,-143.538666
896000,-3.960010,-4.618415,7.438785,-14.828553,43.613071,-140.836380
900000,-3.895366,-4.553771,7.647080,-15.652980,43.246662,-137.645538
904000,-4.048595,-4.520253,7.843405,-15.622445,42.895515,-135.248596
908000,-4.141969,-4.441244,7.903260,-14.538476,42.773376,-132.302032
912000,-4.326323,-4.520253,8.066066,-13.103362,40.788647,-129.920349
916000,-4.410120,-4.520253,8.149862,-11.759851,39.185593,-127.660805
920000,-4.556166,-4.613626,8.190564,-9.790385,36.987118,-125.508133
924000,-4.893748,-4.604050,8.171411,-8.095729,33.704678,-123.111191
928000,-5.106832,-4.584896,8.418014,-6.813286,30.177958,-120.195160
932000,-5.149928,-4.505888,8.621520,-4.767485,27.918417,-117.141724
936000,-5.310339,-4.458004,8.518570,-3.057560,26.498569,-113.844017
940000,-5.317522,-4.304775,8.319851,-1.820919,24.635973,-110.500504
944000,-5.267244,-4.141969,8.267179,-1.256034,24.239027,-107.767677
948000,-5.061342,-4.067749,8.329428,-1.118629,26.727577,-104.775314
952000,-5.109226,-3.921702,8.145074,-1.454507,27.628340,-102.134087
956000,-5.092467,-3.732560,8.015787,-2.278934,28.284828,-99.004318
960000,-5.147533,-3.610456,7.867347,-3.500308,29.536737,-96.973785
964000,-5.087678,-3.512294,7.802703,-4.202599,30.926050,-93.889816
968000,-5.013458,-3.433285,7.965509,-5.118629,33.399334,-91.141724
972000,-5.128380,-3.301604,7.706935,-6.141530,36.040554,-88.347832
976000,-5.140351,-3.186682,7.572860,-7.622446,38.071087,-86.057755
980000,-5.066131,-3.062184,7.503428,-9.149163,40.010021,-83.798210
984000,-5.003881,-3.074155,7.668628,-10.217866,41.078720,-81.492867
988000,-4.888960,-2.952051,7.692570,-9.668247,41.643608,-79.767677
992000,-5.058948,-3.007117,7.544129,-9.240767,39.689407,-77.950882
996000,-5.111620,-2.942474,7.517793,-9.118629,37.017654,-76.347832
1000000,-5.343858,-2.985569,7.340622,-9.042294,35.231392,-74.515770
1004000,-5.609614,-3.002329,7.433996,-9.271301,31.063456,-72.240959
1008000,-5.662287,-2.964022,7.805098,-8.324736,25.414600,-70.531036
1012000,-5.863400,-2.966416,7.939173,-6.462141,19.460402,-68.347832
1016000,-5.930438,-2.935291,8.164227,-5.698782,14.010019,-66.317299
1020000,-5.841852,-2.882619,8.341399,-4.752217,10.086355,-64.240959
1024000,-5.916072,-2.841918,8.396465,-3.408705,8.010019,-61.844013
1028000,-6.007052,-2.913743,8.406042,-2.126262,6.223761,-59.279129
1032000,-6.047753,-2.853889,8.413225,-0.859087,3.903150,-56.714241
1036000,-5.932832,-2.858677,8.406042,0.011142,3.231394,-53.950882
1040000,-6.066907,-2.731784,8.540117,0.774501,3.811547,-50.805847
1044000,-6.110003,-2.770091,8.578424,1.904272,4.330631,-47.370731
1048000,-6.059724,-2.762909,8.568848,3.140913,5.231394,-44.286762
1052000,-5.896919,-2.726996,8.762778,3.904272,6.803913,-41.248592
1056000,-5.805939,-2.683900,8.884883,4.866104,8.437500,-38.179890
1060000,-5.724536,-2.683900,8.798691,5.568394,10.559638,-35.370731
1064000,-5.676652,-2.614468,8.793902,5.766867,11.994752,-32.393631
1068000,-5.640739,-2.552219,8.674192,5.721066,12.681775,-30.271494
1072000,-5.588067,-2.554613,8.616732,5.827936,12.254294,-27.874548
1076000,-5.499481,-2.458845,8.714894,6.545493,11.124523,-25.691341
1080000,-5.492299,-2.387019,8.829816,7.278317,8.849714,-23.721876
1084000,-5.386954,-2.281674,8.887277,7.140913,7.445135,-21.813478
1088000,-5.327099,-2.252944,8.856153,7.873737,6.162692,-20.302029
1092000,-5.293580,-2.209848,8.796297,8.637096,4.758111,-18.195158
1096000,-5.288792,-2.099715,8.786720,9.369921,2.910783,-16.042488
1100000,-5.317522,-2.037466,8.652645,10.026409,1.796279,-13.752412
1104000,-5.125986,-1.833959,8.690952,10.377554,0.788646,-11.080656
1108000,-4.898537,-1.671153,8.705317,9.873737,0.376432,-8.882182
1112000,-4.556166,-1.426944,8.753201,9.278317,2.193226,-6.989052
1116000,-4.249708,-1.338359,8.492233,9.110378,4.788646,-5.233327
1120000,-3.969586,-1.189918,8.276755,8.957706,7.109257,-3.935617
1124000,-3.715801,-1.089362,8.231265,7.950073,8.666508,-2.790579
1128000,-3.533842,-0.948104,8.034941,7.278317,10.559638,-1.828747
1132000,-3.426103,-0.773327,7.879318,6.209615,11.384066,-1.263861
1136000,-3.292027,-0.675165,7.864953,5.614195,10.941318,-0.882182
1140000,-3.172317,-0.660800,7.625533,5.293585,10.956584,-0.500503
1144000,-3.083732,-0.483629,7.589619,4.285951,9.857347,-0.256228
1148000,-2.875436,-0.483629,7.532158,4.026409,8.101623,0.003314
1152000,-2.530671,-0.438139,7.496245,2.820302,7.307730,-0.622640
1156000,-2.334347,-0.423774,7.615956,2.698165,6.376432,-1.187526
1160000,-2.269703,-0.555455,7.599196,2.972974,4.880249,-1.905083
1164000,-2.327164,-0.562637,7.613562,3.140913,2.452768,-2.683709
1168000,-2.305616,-0.615310,7.721301,2.316485,0.483302,-3.721877
1172000,-2.482787,-0.746991,7.757214,2.102745,0.208493,-3.950884
1176000,-2.564190,-0.895431,7.702147,2.316485,-0.371659,-3.874548
1180000,-2.614468,-1.039083,7.733272,2.728699,-0.860209,-3.340197
1184000,-2.815581,-1.154005,7.601591,2.988241,-1.196087,-2.378365
1188000,-3.011906,-1.266533,7.627927,3.614195,-2.005247,-1.309663
1192000,-3.069367,-1.510741,7.575254,3.705798,-2.081583,0.446062
1196000,-3.059790,-1.553837,7.661446,3.690531,-2.218988,2.171253
1200000,-2.882619,-1.577779,7.694964,3.827936,-1.226621,3.835375
1204000,-2.865860,-1.656788,7.733272,3.812669,0.681776,5.087284
1208000,-2.815581,-1.651999,7.630321,3.568394,1.887883,6.995681
1212000,-2.736573,-1.661576,7.544129,3.247783,3.155058,8.720871
1216000,-2.523489,-1.697489,7.517793,2.545493,3.872615,9.972779
1220000,-2.365471,-1.671153,7.354988,1.919539,4.498569,11.392627
1224000,-2.133234,-1.671153,7.326257,1.507325,4.513837,12.217054
1228000,-1.769315,-1.661576,7.285556,1.201982,4.223761,12.919344
1232000,-1.455675,-1.692701,7.041347,0.362287,3.689409,12.873543
1236000,-1.233014,-1.673547,7.036559,-0.721682,2.300096,12.354459
1240000,-1.151611,-1.735796,7.036559,-1.790385,0.513837,11.591100
1244000,-1.235408,-1.831564,7.125144,-3.256034,-2.600667,10.461329
1248000,-1.343147,-1.872266,7.125144,-4.233133,-6.463263,9.942245
1252000,-1.462857,-1.891419,7.287950,-4.950690,-11.028149,9.728504
1256000,-1.527501,-1.898602,7.278373,-6.049927,-14.631202,9.835375
1260000,-1.529895,-1.900996,7.465121,-6.981225,-16.906012,10.125451
1264000,-1.436521,-1.836353,7.395689,-7.881988,-18.585400,10.751406
1268000,-1.357512,-1.771709,7.433996,-9.072827,-19.455629,11.224688
1272000,-1.177947,-1.642422,7.548918,-10.095729,-19.058683,11.575833
1276000,-1.005565,-1.663970,7.675811,-11.256034,-17.806774,11.636902
1280000,-0.826000,-1.704672,7.783550,-11.775118,-15.989981,11.484230
1284000,-0.598550,-1.673547,7.704541,-12.538476,-14.936545,11.346826
1288000,-0.591368,-1.647211,7.941567,-13.423972,-13.089217,10.598734
1292000,-0.481235,-1.654393,8.149862,-14.126264,-10.402194,10.278123
1296000,-0.471658,-1.544260,8.365341,-14.202600,-8.081583,10.049115
1300000,-0.318429,-1.515530,8.439561,-14.172065,-6.020514,9.407894
1304000,-0.361524,-1.417367,8.499416,-14.477408,-3.883110,8.690337
1308000,-0.445322,-1.448492,8.571242,-14.416339,-2.173186,8.614001
1312000,-0.584185,-1.441309,8.446744,-13.851453,-1.486163,8.369726
1316000,-0.612916,-1.553837,8.449138,-13.668248,-2.570133,8.369726
1320000,-0.500388,-1.537078,8.398860,-13.500308,-3.913644,8.339191
1324000,-0.404620,-1.537078,8.497022,-13.118629,-4.646469,8.110184
1328000,-0.363919,-1.553837,8.652645,-12.981225,-6.646469,7.636902
1332000,-0.296881,-1.594538,8.956709,-11.881988,-7.806774,7.010948
1336000,-0.146046,-1.580173,9.157822,-10.874354,-8.218987,6.659803
1340000,-0.158017,-1.604115,9.251195,-9.836186,-7.867843,5.697971
1344000,-0.256180,-1.659182,9.186552,-8.996491,-7.364026,5.148353
1348000,-0.105345,-1.690306,9.363723,-7.820919,-6.218987,4.812475
1352000,-0.050278,-1.762132,9.445126,-6.431606,-4.906011,3.957513
1356000,-0.002394,-1.728614,9.425972,-4.904889,-3.440362,3.224688
1360000,-0.112527,-1.781286,9.548077,-3.561377,-2.539598,2.552932
1364000,-0.189142,-1.855506,9.461885,-1.851454,-0.493797,2.186520
1368000,-0.284910,-1.991976,9.368511,-0.172064,0.849715,1.759039
1372000,-0.395043,-1.972822,9.155427,1.263050,1.292463,1.957513
1376000,-0.490811,-1.951274,9.150639,1.751600,1.506203,2.079650
1380000,-0.474052,-1.953669,8.927979,1.980608,2.147424,2.155986
1384000,-0.591368,-1.927332,8.803479,1.507325,2.025287,2.201787
1388000,-0.471658,-1.833959,8.731653,0.789768,1.750478,2.293390
1392000,-0.426168,-1.821988,8.904037,0.866104,2.727577,2.049116
1396000,-0.471658,-1.824382,8.829816,1.125646,3.017654,2.094917
1400000,-0.538695,-1.731008,8.688558,1.446256,3.475669,1.881177
1404000,-0.579397,-1.659182,8.571242,1.049310,3.628341,1.728505
1408000,-0.715866,-1.683124,8.494628,0.499691,3.521470,1.606368
1412000,-0.751779,-1.577779,8.370130,-0.233133,3.002386,1.636902
1416000,-0.739808,-1.477222,8.233660,-0.981224,1.933684,1.682703
1420000,-0.715866,-1.431733,8.305486,-1.759850,0.819180,1.484230
1424000,-0.746991,-1.338359,8.331821,-2.614812,0.315363,1.133085
1428000,-0.593762,-1.268927,8.236053,-3.668247,0.376432,0.919345
1432000,-0.608127,-1.326388,8.336611,-4.431606,0.620707,0.568200
1436000,-0.478840,-1.331176,8.394072,-5.225499,0.742844,0.278123
1440000,-0.433351,-1.323994,8.379706,-5.317102,0.880249,-0.179892
1444000,-0.586579,-1.297657,8.504205,-5.561378,0.391699,-1.233327
1448000,-0.644040,-1.422156,8.607155,-5.194965,-0.554866,-1.828747
1452000,-0.588974,-1.448492,8.626308,-4.355270,-1.409827,-2.408900
1456000,-0.612916,-1.503559,8.698134,-4.095729,-2.554866,-3.141724
1460000,-0.682347,-1.541866,8.813056,-3.072828,-3.012881,-4.011953
1464000,-0.871489,-1.596933,8.827422,-2.507942,-3.745705,-4.439434
1468000,-0.981623,-1.651999,8.722076,-1.790385,-4.035782,-4.317297
1472000,-1.120486,-1.690306,8.690952,-1.118629,-4.600667,-4.271495
1476000,-1.027112,-1.742979,8.535329,-0.920156,-3.822041,-4.027220
1480000,-1.055843,-1.723825,8.413225,-0.889621,-3.196087,-3.660808
1484000,-0.893037,-1.721431,8.425196,-1.362904,-2.783873,-3.950884
1488000,-0.770933,-1.759738,8.315063,-1.897255,-1.486163,-4.179892
1492000,-0.837971,-1.771709,8.176199,-2.431606,-1.486163,-4.531037
1496000,-0.883460,-1.817199,8.276755,-2.981224,-1.715171,-5.187525
1500000,-1.053449,-1.886631,8.346188,-3.347636,-1.654102,-4.744777
1504000,-1.201889,-1.939303,8.437167,-3.088094,-1.822041,-4.790579
1508000,-1.110910,-1.939303,8.559271,-3.194965,-1.760972,-4.607373
1512000,-1.098939,-2.001553,8.564059,-3.042293,-1.486163,-4.393632
1516000,-1.098939,-2.056619,8.607155,-2.874354,-1.928911,-4.836380
1520000,-1.302446,-2.138022,8.736442,-2.813286,-3.150285,-5.156991
1524000,-1.290475,-2.178724,8.894460,-2.828552,-4.524331,-5.156991
1528000,-1.441309,-2.250550,9.033323,-2.523209,-4.738071,-4.698976
1532000,-1.599327,-2.279280,8.935161,-1.927789,-4.615934,-3.950884
1536000,-1.546654,-2.233790,8.908825,-1.729316,-4.493797,-3.447068
1540000,-1.537078,-2.214637,8.880095,-1.454507,-3.058682,-2.805846
1544000,-1.400608,-2.209848,8.863335,-1.225499,-1.241889,-2.225693
1548000,-1.283292,-2.145205,8.669404,-1.103362,0.116890,-2.103556
1552000,-1.273715,-2.169147,8.686164,-0.874354,0.834447,-2.103556
1556000,-1.173159,-2.092532,8.497022,-0.599545,1.414600,-2.057755
1560000,-1.189918,-1.963245,8.480263,-0.660614,1.964218,-2.195159
1564000,-1.168370,-1.991976,8.535329,-0.706415,2.452768,-2.286762
1568000,-1.158794,-2.049437,8.461109,-0.263667,2.727577,-2.760045
1572000,-1.247379,-2.001553,8.437167,-0.080461,2.269562,-2.866915
1576000,-1.280898,-1.946486,8.317456,-0.172064,1.185592,-2.958518
1580000,-1.419762,-2.020706,8.250419,-0.507942,-0.173186,-2.912716
1584000,-1.431733,-1.910573,8.307879,-1.225499,-1.547232,-2.424167
1588000,-1.424550,-1.970428,8.444349,-1.439240,-1.913644,-2.088289
1592000,-1.407791,-1.915361,8.494628,-1.515576,-2.096850,-1.706609
1596000,-1.328782,-1.915361,8.453926,-1.775118,-1.333492,-1.385999
1600000,-1.333570,-1.850718,8.391677,-1.729316,0.055821,-1.355464
1604000,-1.283292,-1.841141,8.259995,-2.233133,1.704676,-0.912716
1608000,-1.386243,-1.886631,8.204929,-2.477408,1.979486,-0.424167
1612000,-1.350330,-1.912967,8.267179,-3.027026,1.490936,0.125452
1616000,-1.273715,-1.889025,8.374918,-3.362904,1.765745,0.247589
1620000,-1.213860,-1.924938,8.439561,-3.423972,1.887883,0.323925
1624000,-1.266533,-1.795651,8.370130,-3.775118,0.071089,0.323925
1628000,-1.084573,-1.807622,8.580819,-3.866720,1.582539,0.552933
1632000,-1.029507,-1.946486,8.724471,-2.950690,2.574905,0.262856
1636000,-0.998382,-1.843535,8.784326,-2.095728,2.529104,0.186520
1640000,-1.144428,-1.941698,8.650250,-1.362904,1.826814,-0.347831
1644000,-1.156399,-1.867477,8.504205,-0.889621,1.399333,-0.073022
1648000,-1.163582,-1.896208,8.537724,-0.798018,0.468035,0.064383
1652000,-1.237802,-1.917756,8.628703,-0.889621,-0.539598,-0.088289
1656000,-1.137246,-1.936909,8.674192,-0.370538,-1.302957,0.247589
1660000,-1.012747,-1.932121,8.664616,0.026409,-2.005247,-0.073022
1664000,-0.981623,-1.924938,8.590396,-0.141530,-2.157919,-0.683709
1668000,-0.842759,-1.958457,8.667010,0.026409,-1.913644,-1.172258
1672000,-0.984017,-2.013524,8.602366,0.316485,-2.264789,-1.492869
1676000,-1.051055,-2.051831,8.619126,0.560760,-2.906011,-1.615006
1680000,-1.031901,-2.032677,8.638280,0.362287,-4.005247,-1.874548
1684000,-1.082179,-2.049437,8.652645,0.209615,-5.409827,-2.027220
1688000,-1.185130,-2.094927,8.769960,0.453890,-6.096850,-1.889816
1692000,-1.280898,-2.164358,8.626308,0.652363,-6.188453,-1.645541
1696000,-1.288081,-2.085350,8.700529,0.911905,-6.081583,-1.309663
1700000,-1.221043,-2.082955,8.678981,0.347020,-6.188453,-1.202793
1704000,-1.252167,-2.111686,8.638280,0.255417,-6.295323,-0.851648
1708000,-1.209072,-2.087744,8.595184,0.408088,-5.104484,-0.424167
1712000,-1.113304,-2.082955,8.480263,0.255417,-4.096850,-0.027220
1716000,-1.043872,-1.994370,8.413225,-0.477408,-3.028148,-0.103556
1720000,-0.902614,-1.929727,8.413225,-1.118629,-1.593034,-0.042487
1724000,-0.881066,-1.934515,8.307879,-1.714049,-0.173186,-0.240961
1728000,-1.031901,-1.877054,8.379706,-2.156797,0.162692,-0.210426
1732000,-1.060631,-1.960851,8.372523,-2.645346,-0.035782,-0.118823
1736000,-1.070208,-1.898602,8.382100,-3.027026,0.254295,0.049116
1740000,-0.952892,-1.798046,8.329428,-3.866720,0.116890,-0.088289
1744000,-0.914585,-1.903390,8.403648,-4.004126,-0.203721,-0.424167
1748000,-0.900220,-2.003947,8.626308,-3.698782,-1.043415,-0.500503
1752000,-0.883460,-1.951274,8.609550,-3.652980,-1.989980,-1.187526
1756000,-0.967257,-2.003947,8.695741,-3.317102,-2.997614,-1.691342
1760000,-1.036689,-2.099715,8.698134,-2.782751,-3.455629,-1.294396
1764000,-1.170765,-2.140416,8.901642,-2.049927,-3.241888,-1.447067
1768000,-1.230620,-2.212242,9.081207,-0.965957,-2.417461,-0.851648
1772000,-1.254562,-2.219425,8.985439,0.056943,-1.028148,-0.393632
1776000,-1.225831,-2.197877,8.908825,0.682898,-0.341125,-0.042487
1780000,-1.132457,-2.190695,8.949526,1.003508,0.895516,0.598734
1784000,-1.048660,-2.195483,8.992621,1.492058,2.300096,0.751406
1788000,-1.120486,-2.183512,8.906430,1.904272,3.429867,1.301024
1792000,-1.039083,-2.075773,8.892065,2.179081,4.681776,1.911711
1796000,-1.010353,-2.217031,8.736442,3.186715,5.918417,2.171253
1800000,-0.969652,-2.094927,8.497022,2.988241,6.025287,2.476597
1804000,-0.914585,-2.082955,8.583213,2.560760,6.055821,2.430795
1808000,-0.749385,-2.145205,8.480263,2.576027,5.872615,2.247589
1812000,-0.818817,-2.082955,8.489840,2.392821,4.269562,2.125452
1816000,-0.778116,-2.111686,8.401254,2.148547,2.116890,1.606368
1820000,-0.758962,-2.015918,8.432379,1.614195,0.635974,1.148352
1824000,-0.739808,-2.008735,8.585608,1.492058,-0.554866,0.781940
1828000,-0.828394,-2.078167,8.547300,1.843203,-1.135018,0.614001
1832000,-0.974440,-2.006341,8.659827,2.026409,-2.096850,0.583467
1836000,-0.986411,-1.956063,8.676587,2.423356,-2.554866,0.659803
1840000,-0.960075,-1.939303,8.669404,3.049310,-1.959446,0.904078
1844000,-0.948104,-1.893813,8.755595,3.537859,-0.371659,1.255223
1848000,-0.859518,-1.891419,8.465898,3.919539,1.674142,1.377360
1852000,-0.794875,-1.769315,8.362947,4.347020,3.093989,1.239955
1856000,-0.804452,-1.699883,8.240842,4.392821,4.101623,0.934612
1860000,-0.814029,-1.668759,8.216900,4.285951,4.406967,0.614001
1864000,-0.952892,-1.692701,8.197746,4.301219,4.788646,0.339192
1868000,-0.967257,-1.692701,8.097190,4.301219,4.422234,0.247589
1872000,-0.957681,-1.781286,7.941567,3.965340,3.506203,0.003314
1876000,-1.022324,-1.769315,7.817069,3.354653,2.620707,-0.225693
1880000,-0.952892,-1.723825,7.848193,2.652363,1.765745,-0.363098
1884000,-1.048660,-1.687912,7.776367,2.301218,0.437501,-0.469968
1888000,-1.084573,-1.814805,7.788338,1.492058,-1.104484,-0.515770
1892000,-1.079785,-1.752556,7.678205,0.453890,-2.677003,-0.393632
1896000,-1.101333,-1.817199,7.721301,-0.813286,-3.531965,-0.515770
1900000,-1.024718,-1.774103,8.075643,-1.439240,-3.608301,-0.118823
1904000,-0.981623,-1.790863,8.080431,-1.469774,-3.333492,0.079650
1908000,-0.924162,-1.783680,8.006210,-1.759850,-2.890743,0.049116
1912000,-0.881066,-1.783680,8.054094,-1.805652,-2.524331,0.369726
1916000,-0.857124,-1.836353,8.185776,-2.004125,-1.989980,0.461329
1920000,-0.792481,-1.778892,8.113950,-1.866720,-1.333492,0.354459
1924000,-0.737414,-1.821988,8.216900,-2.340003,-1.165553,0.201787
1928000,-0.878672,-1.881842,8.259995,-2.721682,-1.470896,-0.210426
1932000,-1.010353,-1.836353,8.312668,-2.798018,-1.730438,0.110184
1936000,-1.027112,-1.893813,8.322245,-2.736950,-2.051049,0.094917
1940000,-1.041478,-1.889025,8.372523,-2.446873,-1.989980,0.293391
1944000,-1.010353,-1.903390,8.281544,-2.080461,-2.493797,0.583467
1948000,-0.955287,-1.865083,8.240842,-1.866720,-3.135018,0.537665
1952000,-0.809240,-1.824382,8.327033,-1.775118,-3.165553,0.140719
1956000,-0.770933,-1.800440,8.350976,-1.637713,-3.822041,0.018581
1960000,-0.739808,-1.800440,8.324639,-1.622446,-4.051049,-0.607373
1964000,-0.818817,-1.812411,8.319851,-1.881988,-4.173186,-0.866915
1968000,-0.864307,-1.896208,8.216900,-2.217866,-3.104484,-0.821113
1972000,-0.957681,-1.908179,8.145074,-2.187331,-1.913644,-0.775312
1976000,-0.921768,-1.776498,8.204929,-2.385804,-1.073950,-0.500503
1980000,-0.864307,-1.800440,8.312668,-2.920156,-0.157919,-0.668442
1984000,-0.950498,-1.812411,8.271967,-3.133896,0.376432,-0.775312
1988000,-0.940921,-1.843535,8.221688,-3.103362,0.147424,-0.592106
1992000,-0.943315,-1.862689,8.214506,-3.164430,0.422234,-0.668442
1996000,-0.952892,-1.903390,8.166622,-3.561377,0.055821,-0.760045
