time_us,ax,ay,az,gx,gy,gz
0,2.049437,-0.624887,8.710106,-1.714049,-3.562499,-2.210426
4000,2.035071,-0.644040,8.686164,-1.225499,-4.539598,-2.378365
8000,2.078167,-0.699107,8.695741,-0.843820,-4.768606,-2.195159
12000,2.094927,-0.775721,8.863335,-0.538476,-4.463263,-1.935617
16000,2.149993,-0.713472,8.798691,-0.721682,-2.921278,-1.905083
20000,2.212242,-0.718261,9.085996,-1.149163,-1.791507,-1.889816
24000,2.348712,-0.744597,9.138668,-1.027026,0.406966,-1.447067
28000,2.248155,-0.830788,9.186552,-0.294202,3.170325,-1.309663
32000,2.305616,-0.806846,9.155427,0.041676,5.643608,-0.927984
36000,2.363077,-0.682347,8.930372,0.316485,8.406966,-0.744777
40000,2.319981,-0.667982,8.925584,0.392821,11.460402,-0.515770
44000,2.351106,-0.663194,8.832211,0.194348,13.246661,-0.546304
48000,2.396596,-0.708684,8.815451,-0.080461,13.918416,-0.607373
52000,2.420538,-0.653617,8.712500,-0.340003,14.116890,-0.561571
56000,2.430115,-0.730232,8.669404,-0.385804,14.132157,-0.744777
60000,2.413355,-0.723049,8.611943,-0.538476,13.582539,-1.095922
64000,2.456451,-0.735020,8.556877,-0.859087,13.017653,-1.156991
68000,2.492364,-0.766145,8.508993,-1.149163,11.613073,-1.966151
72000,2.513912,-0.696713,8.441956,-1.118629,9.948951,-2.851648
76000,2.499547,-0.711078,8.408437,-1.240766,7.826814,-3.538671
80000,2.516306,-0.639252,8.305486,-1.362904,6.452768,-4.118823
84000,2.482787,-0.648829,8.398860,-1.637713,4.758111,-4.683709
88000,2.549825,-0.579397,8.422802,-1.622446,2.971852,-5.844014
92000,2.561796,-0.627281,8.391677,-1.362904,2.086356,-6.393632
96000,2.564190,-0.687136,8.506598,-0.828552,0.758111,-7.080655
100000,2.446874,-0.646434,8.453926,-0.507942,-0.310591,-7.782945
104000,2.454057,-0.620098,8.410830,-0.492675,-1.409827,-8.027221
108000,2.370260,-0.639252,8.456321,-0.324736,-2.310591,-8.515770
112000,2.327164,-0.691924,8.492233,-0.431606,-2.860209,-8.729510
116000,2.279280,-0.701501,8.494628,-0.523209,-3.073950,-8.363098
120000,2.231396,-0.735020,8.516175,-0.691148,-2.875476,-8.332563
124000,2.406173,-0.679953,8.504205,-1.164430,-2.646469,-8.225694
128000,2.422932,-0.737414,8.655039,-1.652980,-1.150285,-7.752411
132000,2.425326,-0.670376,8.710106,-1.943056,0.422234,-7.615006
136000,2.528277,-0.687136,8.741230,-1.958324,2.101623,-7.294395
140000,2.789245,-0.593762,8.669404,-1.943056,4.284829,-7.156991
144000,2.923320,-0.557849,8.719683,-2.187331,6.284829,-7.309663
148000,3.169923,-0.545878,8.779537,-2.019392,8.300096,-7.782945
152000,3.217807,-0.524330,8.813056,-1.820919,9.322997,-8.683709
156000,3.368642,-0.507571,8.805874,-1.011759,9.552004,-9.737144
160000,3.366248,-0.531513,8.856153,-0.324736,9.781012,-10.927984
164000,3.363853,-0.411803,8.872911,0.331753,9.048187,-12.134090
168000,3.435679,-0.471658,8.743625,1.079844,8.162691,-13.065389
172000,3.313575,-0.423774,8.678981,1.217249,7.170325,-14.042488
176000,3.193865,-0.433351,8.631097,0.774501,5.139791,-14.500503
180000,3.320758,-0.464475,8.547300,0.911905,3.857348,-15.340198
184000,3.371036,-0.507571,8.518570,-0.034660,2.956585,-15.660809
188000,3.471592,-0.488417,8.449138,-0.721682,2.284829,-16.256227
192000,3.545813,-0.512359,8.458714,-1.362904,1.918417,-16.989052
196000,3.701436,-0.404620,8.286332,-1.820919,3.185592,-17.569204
200000,3.785233,-0.385466,8.224083,-2.767484,4.208493,-18.240959
204000,3.960010,-0.349553,8.142680,-4.080462,5.643608,-19.233326
208000,3.995923,-0.344765,8.350976,-4.965958,7.231394,-20.195158
212000,3.957615,-0.356736,8.303091,-5.591911,7.948951,-21.370731
216000,4.053383,-0.380678,8.236053,-6.034659,7.674142,-22.576838
220000,4.156334,-0.332794,8.410830,-6.355270,8.193226,-23.844013
224000,4.103662,-0.373495,8.408437,-6.706415,8.437500,-25.172258
228000,4.079720,-0.380678,8.386889,-6.965958,8.101623,-26.134090
232000,4.132392,-0.366313,8.494628,-7.011759,7.384066,-27.218060
236000,4.244920,-0.339977,8.525752,-6.996491,6.971852,-28.958517
240000,4.276044,-0.371101,8.556877,-6.294202,6.468035,-30.668442
244000,4.283227,-0.423774,8.413225,-6.110995,5.490936,-32.286762
248000,4.268862,-0.390255,8.465898,-5.820919,5.139791,-34.195160
252000,4.244920,-0.462081,8.398860,-5.530843,5.261929,-35.447067
256000,4.082114,-0.548272,8.458714,-5.591911,5.429867,-36.485233
260000,4.165911,-0.596156,8.453926,-5.485042,5.964219,-36.836380
264000,3.991134,-0.632069,8.384495,-5.103362,7.032921,-37.324928
268000,4.065354,-0.653617,8.367735,-5.210233,8.010019,-37.309662
272000,4.141969,-0.615310,8.391677,-5.149163,10.101623,-37.477600
276000,4.259285,-0.553061,8.437167,-5.271301,12.361164,-38.179890
280000,4.283227,-0.466869,8.432379,-4.782751,14.239027,-38.469967
284000,4.424485,-0.459687,8.362947,-4.782751,15.872616,-39.263863
288000,4.584896,-0.438139,8.264784,-4.721683,17.231394,-40.546303
292000,4.604050,-0.423774,8.283937,-4.675881,17.979485,-41.981419
296000,4.582502,-0.452504,8.250419,-4.385805,18.926050,-43.309662
300000,4.513070,-0.466869,8.367735,-4.049927,19.002386,-44.439434
304000,4.620809,-0.466869,8.291121,-3.454507,18.071089,-45.828747
308000,4.711789,-0.517148,8.209718,-2.553744,17.689409,-47.156990
312000,4.639963,-0.435745,7.994239,-2.294202,17.796280,-48.744778
316000,4.599261,-0.445322,7.903260,-2.630080,15.964218,-50.271496
320000,4.642357,-0.440533,7.773973,-3.500308,13.964218,-52.378365
324000,4.675876,-0.423774,7.790732,-3.668247,12.147424,-53.553936
328000,4.611232,-0.471658,7.714118,-3.851454,9.872615,-55.385998
332000,4.639963,-0.416591,7.757214,-4.248401,7.643608,-56.882183
336000,4.735731,-0.488417,7.644686,-4.782751,6.437501,-58.744778
340000,4.867412,-0.471658,7.647080,-5.744583,5.918417,-60.408897
344000,4.802769,-0.457293,7.663840,-6.538477,5.429867,-62.073021
348000,4.821922,-0.512359,7.663840,-7.164431,4.284829,-64.011955
352000,4.738125,-0.519542,7.769185,-7.591911,3.017654,-65.538673
356000,4.802769,-0.600945,7.943961,-7.881988,1.490936,-67.202789
360000,4.687847,-0.699107,8.020576,-7.881988,0.345898,-68.866913
364000,4.616021,-0.763750,8.034941,-7.714049,0.391699,-70.179893
368000,4.639963,-0.782904,8.183381,-8.019393,-0.234255,-71.752411
372000,4.726154,-0.828394,8.429984,-7.515575,-0.325858,-72.973785
376000,4.723760,-0.766145,8.614338,-6.981225,0.162692,-74.149361
380000,4.771644,-0.871489,8.508993,-7.912522,0.544371,-75.706612
384000,4.481946,-0.943315,9.069236,-5.256034,-2.906011,-77.447067
388000,5.164293,-0.821211,9.342175,-1.622446,-2.371660,-79.340195
392000,5.209783,-0.888249,9.210494,-0.248400,1.124524,-81.706612
396000,5.080496,-0.943315,9.083601,0.301218,1.887883,-84.851646
400000,4.924873,-0.995988,8.846576,1.278317,3.735211,-87.324928
404000,4.685453,-1.077391,8.746018,1.522592,4.544371,-89.004318
408000,4.465186,-1.146823,8.566454,0.896638,3.552005,-91.126457
412000,4.139575,-1.276109,8.487445,0.606562,2.254295,-92.210426
416000,3.888184,-1.247379,8.224083,-0.416339,0.376432,-92.317299
420000,3.782839,-1.338359,8.276755,-1.347636,-1.791507,-93.248596
424000,3.689465,-1.501164,8.128315,-2.614812,-2.585400,-93.935616
428000,3.639187,-1.398214,8.303091,-3.927789,-3.241888,-93.920349
432000,3.627216,-1.467646,8.298303,-5.011759,-4.982347,-94.500504
436000,3.792415,-1.553837,8.623915,-6.141530,-6.906011,-95.156990
440000,3.943250,-1.589750,8.880095,-6.935423,-8.570133,-95.050117
444000,4.031836,-1.654393,9.366117,-6.996491,-8.936545,-97.080658
448000,3.981557,-1.774103,9.548077,-5.759851,-8.509065,-97.538673
452000,4.113238,-1.831564,9.600749,-4.950690,-7.577766,-100.363098
456000,4.254497,-1.951274,9.686940,-4.019392,-5.012881,-102.149361
460000,4.161122,-1.994370,9.682152,-3.622446,-2.783873,-104.485237
464000,3.962404,-2.102109,9.734824,-3.011759,-1.440362,-106.500504
468000,3.629610,-2.219425,9.789890,-2.523209,-1.104484,-107.462334
472000,3.373430,-2.305616,9.756371,-2.034660,-0.692270,-108.195160
476000,3.392584,-2.341529,9.782708,-1.576644,-0.356392,-108.760040
480000,3.392584,-2.449268,9.605537,-0.523209,0.758111,-109.370728
484000,3.287239,-2.425326,9.595961,0.453890,1.384066,-109.889816
488000,3.229778,-2.406173,9.457097,0.957707,1.353531,-110.302032
492000,3.236961,-2.444480,9.387665,1.492058,1.093989,-110.851646
496000,3.507505,-2.389413,9.217676,2.438623,1.200860,-111.645538
500000,3.421314,-2.427721,9.287108,2.499691,0.926050,-112.836380
504000,3.363853,-2.442086,9.282320,2.881371,0.727577,-113.752411
508000,3.531447,-2.504335,9.402030,3.843203,1.338264,-114.790581
512000,3.588908,-2.504335,9.694122,4.438623,2.834447,-115.798210
516000,3.641581,-2.597709,9.579201,6.621829,5.994753,-116.973785
520000,3.265691,-2.533065,9.229648,7.721066,6.803913,-118.027222
524000,3.160346,-2.552219,9.038112,7.232516,7.628340,-118.531036
528000,2.959233,-2.576161,8.954314,6.179081,9.216126,-118.256226
532000,2.861071,-2.628834,8.844181,4.927173,10.330630,-118.683708
536000,2.760514,-2.549825,8.935161,3.339386,10.864982,-118.637909
540000,2.841918,-2.636016,8.968679,2.621829,12.239027,-118.454704
544000,2.782062,-2.631228,8.734048,2.270684,13.322997,-118.271492
548000,2.748544,-2.518700,8.731653,1.430989,14.697042,-117.599739
552000,2.796427,-2.446874,8.619126,0.118012,17.124523,-116.851646
556000,2.846706,-2.466028,8.583213,-1.469774,19.078722,-116.592102
560000,2.930503,-2.370260,8.578424,-2.370538,19.399332,-116.714241
564000,2.990358,-2.269703,8.592790,-2.950690,18.926050,-117.080658
568000,3.150769,-2.293645,8.841787,-3.118629,18.208492,-117.889816
572000,3.313575,-2.315193,8.796297,-2.355270,17.887882,-118.973785
576000,3.277662,-2.284068,8.765172,-1.576644,17.765745,-120.439430
580000,3.208230,-2.360683,8.566454,-0.706415,17.307730,-121.828743
584000,3.177106,-2.403779,8.566454,0.041676,16.193226,-123.248596
588000,3.323152,-2.329558,8.360553,-0.294202,14.727577,-125.340195
592000,3.342306,-2.372654,8.439561,-1.332370,13.216126,-127.935616
596000,3.074155,-2.468422,8.485051,-1.790385,11.857347,-129.905075
600000,2.911349,-2.454057,8.468291,-2.401072,9.933683,-131.050125
604000,2.789245,-2.561796,8.525752,-2.935423,9.353531,-132.042480
608000,2.650381,-2.559402,8.583213,-3.042293,10.620707,-132.256226
612000,2.782062,-2.549825,8.516175,-2.675881,11.872615,-132.256226
616000,2.609680,-2.518700,8.346188,-2.767484,13.475668,-132.408905
620000,2.908955,-2.387019,8.085219,-4.477407,14.742844,-133.462341
624000,3.236961,-2.363077,8.073248,-6.859087,16.834448,-134.408905
628000,3.383007,-2.363077,8.269572,-9.194965,20.834448,-135.905075
632000,3.335123,-2.432509,8.336611,-11.027026,24.559637,-137.218063
636000,3.265691,-2.482787,8.425196,-12.172065,27.826813,-138.195160
640000,3.299210,-2.533065,8.506598,-12.813285,31.338264,-139.645538
644000,3.373430,-2.554613,8.513782,-13.362905,35.032921,-141.004318
648000,3.684676,-2.523489,8.499416,-13.729316,38.941319,-143.248596
652000,3.801992,-2.621651,8.420407,-14.523210,41.368797,-146.073029
656000,3.639187,-2.679112,8.379706,-15.118629,41.307728,-148.866913
660000,3.397372,-2.746149,8.379706,-15.454507,40.498569,-151.340195
664000,3.224990,-2.765303,8.317456,-15.836186,39.613071,-152.805847
668000,3.136404,-2.825158,8.271967,-16.202599,38.055820,-155.172256
672000,3.335123,-2.784456,8.255207,-17.149162,36.926048,-157.538666
676000,3.311181,-2.863465,8.248025,-18.217865,36.162693,-160.439438
680000,2.947262,-2.999935,8.516175,-18.004124,34.315365,-162.561569
684000,2.590526,-3.045424,8.461109,-17.347635,32.055820,-164.378372
688000,2.224213,-3.074155,8.461109,-16.950689,30.406965,-165.340195
692000,1.838747,-3.292027,8.518570,-16.553743,29.277195,-165.553940
696000,1.517924,-3.308787,8.530540,-15.607179,28.132156,-164.821106
700000,1.300052,-3.366248,8.513782,-14.278935,28.055820,-163.324936
704000,1.177947,-3.387795,8.530540,-13.317103,29.048187,-161.309662
708000,1.297657,-3.378219,8.329428,-12.752217,29.597805,-159.844009
712000,1.369483,-3.402161,8.432379,-12.385804,30.635973,-158.897446
716000,1.431733,-3.414132,8.540117,-12.019393,31.155058,-158.042480
720000,1.309628,-3.488352,8.588001,-11.194965,32.010021,-157.324936
724000,1.314417,-3.512294,8.722076,-9.851454,31.674141,-156.515762
728000,1.618480,-3.483563,8.676587,-8.523210,32.101624,-156.363098
732000,2.003947,-3.442862,8.825027,-6.904889,33.750477,-157.782944
736000,2.135628,-3.483563,8.396465,-6.477407,37.155056,-159.294388
740000,1.508347,-3.557784,7.850587,-7.301835,37.246662,-160.698975
744000,0.766145,-3.557784,7.673417,-7.744583,34.239029,-161.187531
748000,0.316035,-3.658340,7.836222,-6.828553,29.674141,-160.317291
752000,-0.155623,-3.593697,7.975086,-5.408706,22.040554,-158.836380
756000,-0.244209,-3.490746,8.025364,-4.828553,17.460402,-156.790573
760000,0.062249,-3.268085,8.264784,-5.530843,17.231394,-154.622635
764000,0.435745,-3.184288,8.662222,-6.645347,20.529104,-152.714249
768000,0.586579,-3.155558,8.750807,-5.805653,24.529104,-151.523407
772000,0.684742,-3.069367,8.705317,-4.507942,28.361164,-151.202789
776000,0.718261,-3.110068,8.473080,-4.630079,32.376431,-151.202789
780000,0.615310,-3.057395,8.104373,-4.675881,37.490936,-151.065384
784000,0.466869,-2.904167,7.898471,-5.301835,42.193226,-150.927979
788000,0.368707,-2.964022,8.058883,-5.485042,44.864983,-151.370728
792000,-0.079009,-2.952051,7.829040,-4.034659,46.864983,-151.416534
796000,-0.627281,-3.009511,7.663840,-1.958324,45.475670,-150.622635
800000,-1.144428,-3.078943,7.544129,-0.767484,42.177959,-149.767685
804000,-1.647211,-3.126827,7.333440,0.163814,38.284828,-148.378372
808000,-1.915361,-3.047819,7.383718,-0.019392,33.948952,-146.469971
812000,-2.185906,-3.052607,7.247249,0.667630,28.177958,-143.630280
816000,-2.394202,-3.050213,6.959944,1.201982,20.254293,-141.370728
820000,-2.595315,-3.071761,7.031770,0.514959,15.078722,-139.294388
824000,-2.892196,-3.126827,6.878541,-0.217866,11.231394,-136.088287
828000,-3.191471,-3.145981,6.835446,-1.393438,6.773379,-132.317291
832000,-3.236961,-3.095703,6.991069,-2.798018,4.376432,-128.057755
836000,-3.205836,-3.145981,6.914454,-3.820919,3.994753,-123.905083
840000,-3.320758,-3.086126,6.957550,-5.958323,3.918417,-119.798210
844000,-3.071761,-2.952051,7.062895,-8.233133,5.368799,-115.889816
848000,-2.863465,-2.844312,7.252037,-9.836186,7.964219,-112.912712
852000,-2.846706,-2.707842,7.333440,-10.904889,9.887882,-110.088287
856000,-2.892196,-2.612074,7.402872,-11.515575,10.345898,-107.492867
860000,-3.004723,-2.671929,7.546524,-12.034659,11.063455,-104.866913
864000,-3.052607,-2.631228,7.766790,-12.706416,12.666508,-102.011955
868000,-2.913743,-2.554613,7.857770,-13.362905,13.109256,-99.340195
872000,-2.796427,-2.463634,8.180987,-13.775117,13.979486,-98.271492
876000,-2.918532,-2.434903,8.410830,-13.714049,13.552004,-96.027222
880000,-2.959233,-2.343924,8.537724,-12.736949,12.223760,-93.676071
884000,-2.863465,-2.257732,8.638280,-11.729317,11.231394,-91.889816
888000,-2.674323,-2.276886,8.662222,-10.782751,11.002386,-90.439430
892000,-2.647987,-2.171541,8.588001,-10.065194,10.223760,-89.233330
896000,-2.612074,-2.296039,8.846576,-9.576645,9.979486,-88.454704
900000,-2.722207,-2.202666,9.038112,-8.523210,9.475668,-87.172256
904000,-3.004723,-2.324770,9.028535,-7.301835,8.956584,-85.950882
908000,-3.378219,-2.284068,9.160215,-6.141530,7.567272,-83.828743
912000,-3.612850,-2.355895,9.179369,-4.278934,5.887883,-80.897446
916000,-3.766079,-2.264915,9.220071,-2.294202,3.368799,-78.042488
920000,-3.778050,-2.197877,9.172187,-0.859087,2.513837,-74.561569
924000,-3.648763,-2.027889,8.822633,-0.599545,2.330631,-71.477600
928000,-3.495534,-1.891419,8.621520,-1.439240,1.353531,-68.821114
932000,-3.390190,-1.695095,8.597578,-2.569010,-0.280056,-66.408897
936000,-3.253720,-1.489193,8.616732,-3.958324,-1.135018,-63.798210
940000,-3.026271,-1.340753,8.676587,-5.332370,-1.822041,-62.057755
944000,-2.875436,-1.230620,8.528147,-6.782751,-0.860209,-60.271496
948000,-2.975993,-1.173159,8.343793,-8.126263,0.849715,-58.302029
952000,-2.942474,-1.053449,8.157045,-10.156797,2.254295,-56.302029
956000,-2.772485,-0.986411,8.195353,-12.080461,3.597806,-54.546303
960000,-2.762909,-0.933739,8.092402,-14.370538,4.895516,-52.912716
964000,-2.789245,-0.876278,8.221688,-16.324736,5.338264,-51.141724
968000,-2.789245,-0.749385,8.372523,-18.019392,5.719944,-49.233326
972000,-2.707842,-0.713472,8.671799,-19.256033,6.468035,-47.416534
976000,-2.336741,-0.718261,9.074024,-19.652979,9.109256,-45.966152
980000,-2.257732,-0.773327,9.270349,-19.027025,11.536737,-45.050121
984000,-2.456451,-0.768539,9.126697,-18.110994,12.773378,-44.347832
988000,-2.482787,-0.792481,9.090784,-17.958323,12.681775,-43.584473
992000,-2.552219,-0.919373,9.279925,-17.423971,11.338264,-42.622639
996000,-2.506729,-0.957681,9.433155,-15.332370,9.185592,-42.179890
1000000,-2.590526,-0.924162,9.354146,-13.256034,6.437501,-41.569202
1004000,-2.477999,-0.928950,9.260772,-11.194965,3.704677,-40.973785
1008000,-2.293645,-0.936133,9.399636,-9.866721,0.819180,-40.698975
1012000,-2.133234,-0.859518,9.550470,-8.660614,-0.585400,-40.943249
1016000,-2.171541,-0.945710,9.521740,-7.759851,-2.417461,-40.622639
1020000,-2.262521,-0.909797,9.730036,-6.904889,-4.203721,-39.859280
1024000,-2.331953,-0.991199,9.780313,-5.988858,-5.180820,-39.141724
1028000,-2.360683,-0.960075,9.648633,-6.507942,-3.852576,-37.996685
1032000,-2.631228,-1.060631,9.674969,-6.996491,-1.364026,-35.996685
1036000,-2.786851,-1.046266,9.500193,-7.759851,1.139791,-33.706608
1040000,-2.647987,-1.079785,9.509769,-8.156797,4.208493,-31.370731
1044000,-2.633622,-1.106121,9.555259,-8.553743,6.498569,-29.294395
1048000,-2.633622,-1.139640,9.562442,-8.965958,9.338264,-27.126455
1052000,-2.715025,-1.134852,9.490616,-9.072827,12.193226,-24.973785
1056000,-2.703054,-1.084573,9.507375,-9.301835,14.605439,-22.958517
1060000,-2.602497,-1.137246,9.552865,-8.599545,16.605440,-20.805845
1064000,-2.552219,-1.113304,9.370906,-7.271301,17.353531,-19.553938
1068000,-2.777274,-1.007959,8.983045,-6.431606,15.735210,-17.874548
1072000,-2.746149,-0.940921,8.640674,-6.278934,12.956584,-16.744778
1076000,-2.614468,-0.871489,8.508993,-6.874354,10.376431,-15.401266
1080000,-2.473210,-0.830788,8.477868,-7.866721,7.429867,-14.378366
1084000,-2.236184,-0.782904,8.485051,-8.843820,4.635974,-13.538671
1088000,-2.070984,-0.730232,8.595184,-10.049927,2.513837,-13.385999
1092000,-1.984793,-0.699107,8.429984,-10.477407,1.979486,-12.927984
1096000,-2.023100,-0.701501,8.470686,-11.118629,1.399333,-12.592106
1100000,-1.965640,-0.703895,8.468291,-11.454507,2.529104,-11.798213
1104000,-1.874660,-0.749385,8.741230,-11.271301,3.704677,-10.607373
1108000,-1.618480,-0.818817,8.801085,-10.767485,4.987119,-9.676076
1112000,-1.517924,-0.840365,9.069236,-10.263667,6.513837,-9.111190
1116000,-1.541866,-0.811634,9.107543,-9.347637,7.399333,-8.790579
1120000,-1.675941,-0.905008,9.105149,-8.630079,7.368799,-7.721877
1124000,-1.759738,-0.878672,9.112331,-7.546110,7.170325,-6.790579
1128000,-1.733402,-0.859518,9.081207,-6.462141,6.819180,-5.355464
1132000,-1.709460,-0.916979,9.021352,-5.866721,5.292463,-4.408900
1136000,-1.687912,-0.871489,9.085996,-5.225499,3.826814,-3.431800
1140000,-1.618480,-0.840365,9.198523,-4.767485,2.071089,-2.271495
1144000,-1.510741,-0.785298,9.279925,-3.988858,1.063455,-1.050121
1148000,-1.448492,-0.689530,9.392453,-2.798018,1.338264,0.278123
1152000,-1.285686,-0.737414,9.366117,-1.439240,2.513837,0.995681
1156000,-1.249773,-0.663194,9.354146,-0.172064,3.872615,1.850642
1160000,-1.096544,-0.531513,9.026140,0.682898,5.170325,2.583467
1164000,-0.907402,-0.507571,8.937555,1.156180,6.452768,3.346826
1168000,-0.799663,-0.423774,8.781932,1.339386,7.521471,3.743773
1172000,-0.766145,-0.445322,8.676587,1.827936,7.490936,3.881177
1176000,-0.687136,-0.404620,8.635885,2.270684,7.429867,3.926979
1180000,-0.531513,-0.347159,8.695741,2.301218,7.628340,3.926979
1184000,-0.469264,-0.349553,8.583213,2.118012,7.811547,3.881177
1188000,-0.495600,-0.407014,8.544906,2.179081,7.552005,3.881177
1192000,-0.567426,-0.411803,8.470686,1.476791,6.635974,3.789574
1196000,-0.414197,-0.354342,8.401254,1.034043,5.307730,4.003314
1200000,-0.256180,-0.349553,8.437167,0.759233,4.513837,3.484231
1204000,-0.172383,-0.392649,8.379706,0.835569,3.384066,3.117818
1208000,-0.117316,-0.464475,8.382100,1.308852,2.345898,2.598734
1212000,-0.124498,-0.505177,8.190564,1.705798,2.223760,2.262856
1216000,-0.105345,-0.524330,7.922413,1.568394,2.376432,1.972780
1220000,-0.146046,-0.584185,7.931990,0.743966,2.269562,1.392627
1224000,-0.251391,-0.624887,7.862558,-0.202598,1.429867,2.094917
1228000,-0.258574,-0.627281,7.912837,-0.782751,0.376432,2.293390
1232000,-0.069432,-0.624887,7.948750,-2.049927,-0.463263,2.720871
1236000,0.076614,-0.615310,7.963115,-3.088094,-0.783873,2.232322
1240000,0.244209,-0.536301,8.010999,-4.721683,-0.753339,2.155986
1244000,0.256180,-0.624887,8.207323,-5.744583,-0.554866,1.881177
1248000,0.229843,-0.766145,8.271967,-5.775118,-0.539598,1.911711
1252000,0.311246,-0.768539,8.391677,-5.805653,-0.692270,2.186520
1256000,0.450110,-0.806846,8.777143,-5.179698,-0.188453,2.339192
1260000,0.526724,-0.754174,8.913613,-4.599545,-0.218988,1.682703
1264000,0.344765,-0.840365,9.035717,-3.714049,-0.829675,1.591100
1268000,0.244209,-0.907402,9.081207,-2.782751,-1.806774,1.911711
1272000,0.124498,-0.909797,9.478644,-2.095728,-3.089217,2.491864
1276000,0.442927,-0.912191,9.787497,-1.118629,-2.218988,3.041482
1280000,0.598550,-0.857124,9.914390,0.301218,-0.310591,3.010948
1284000,0.648829,-0.984017,9.914390,1.629462,0.834447,2.751406
1288000,0.699107,-0.912191,9.742006,2.972974,1.552005,2.461329
1292000,0.787692,-0.881066,9.682152,4.194348,2.544371,2.110184
1296000,0.797269,-0.861913,9.789890,5.354653,4.040555,1.514765
1300000,0.735020,-0.861913,9.598354,6.209615,4.452768,1.026215
1304000,0.536301,-0.902614,9.303867,7.018775,4.468035,0.766673
1308000,0.414197,-0.840365,9.200917,7.721066,4.437501,0.690337
1312000,0.294487,-0.837971,8.932767,7.995874,3.887883,1.178887
1316000,0.217872,-0.881066,8.698134,8.682898,3.704677,1.362093
1320000,0.191536,-0.828394,8.427590,8.148546,3.170325,1.560566
1324000,0.124498,-0.773327,8.216900,7.415722,1.597806,1.835375
1328000,0.055067,-0.809240,8.171411,6.835569,0.819180,2.171253
1332000,-0.004788,-0.816423,7.845799,5.537859,0.162692,2.507131
1336000,0.146046,-0.751779,7.886500,4.102745,0.055821,3.468963
1340000,0.304064,-0.751779,7.771579,2.240149,1.445134,3.881177
1344000,0.359130,-0.708684,7.575254,-0.126262,1.964218,3.820108
1348000,0.383072,-0.648829,7.625533,-2.309469,2.376432,3.606368
1352000,0.294487,-0.694318,7.632715,-4.080462,2.697043,3.514765
1356000,0.320823,-0.634463,7.613562,-5.988858,2.559638,3.697971
1360000,0.229843,-0.596156,7.714118,-7.973591,2.223760,3.591101
1364000,0.263362,-0.605733,7.762002,-9.515575,2.055821,3.865910
1368000,0.349553,-0.509965,8.051701,-10.859087,1.078722,4.003314
1372000,0.483629,-0.579397,8.262390,-10.996491,0.529104,3.911711
1376000,0.557849,-0.500388,8.406042,-11.210233,0.162692,3.346826
1380000,0.622492,-0.509965,8.638280,-10.981225,-0.829675,2.644536
1384000,0.519542,-0.495600,8.621520,-10.523210,-2.005247,2.125452
1388000,0.442927,-0.512359,8.688558,-10.278934,-3.608301,1.575833
1392000,0.361524,-0.531513,8.796297,-9.439240,-5.165553,1.102551
1396000,0.454898,-0.639252,8.963891,-8.416339,-6.035781,0.949879
1400000,0.620098,-0.624887,9.191340,-6.859087,-6.142652,0.369726
1404000,0.785298,-0.579397,9.279925,-4.874354,-5.608301,-0.469968
1408000,0.735020,-0.586579,9.265560,-3.210232,-5.241889,-1.126457
1412000,0.545878,-0.639252,9.191340,-2.385804,-4.860209,-1.798213
1416000,0.447716,-0.679953,9.090784,-1.194965,-4.799140,-1.905083
1420000,0.323217,-0.742203,9.009381,-0.416339,-4.844942,-2.011953
1424000,0.205901,-0.742203,8.803479,0.102745,-4.661736,-1.737144
1428000,0.215478,-0.742203,8.542512,0.255417,-4.295324,-1.263861
1432000,0.227449,-0.782904,8.298303,0.118012,-3.440362,-0.607373
1436000,0.368707,-0.790087,8.276755,-0.828552,-2.906011,-0.363098
1440000,0.574608,-0.826000,8.346188,-2.721682,-3.135018,-0.882182
1444000,0.588974,-0.830788,8.477868,-4.034659,-3.119751,-1.263861
1448000,0.567426,-0.926556,8.595184,-4.660614,-3.898377,-1.981419
1452000,0.299275,-0.902614,8.643068,-5.668247,-4.967079,-2.439434
1456000,-0.016759,-0.998382,8.631097,-5.927790,-5.180820,-2.088289
1460000,-0.258574,-0.926556,8.638280,-6.599545,-4.875476,-0.775312
1464000,-0.332794,-0.931344,8.597578,-7.317102,-4.371659,0.491864
1468000,-0.119710,-0.847547,8.662222,-8.217866,-3.302957,1.636902
1472000,0.093374,-0.787692,8.805874,-9.194965,-1.959446,2.247589
1476000,0.452504,-0.758962,8.942344,-9.515575,-0.218988,2.186520
1480000,0.416591,-0.739808,9.093178,-9.515575,2.010020,1.957513
1484000,0.325611,-0.725443,8.999804,-9.469774,3.506203,1.636902
1488000,0.239420,-0.766145,8.971074,-9.042294,5.277195,1.453696
1492000,0.093374,-0.667982,9.004593,-8.523210,6.300097,1.591100
1496000,0.079009,-0.756568,8.836999,-7.729317,6.697043,1.713238
1500000,0.074220,-0.651223,8.616732,-6.401072,5.506203,1.697971
1504000,0.330400,-0.624887,8.535329,-6.217866,2.666508,1.316291
1508000,0.586579,-0.627281,8.669404,-5.591911,0.971852,0.461329
1512000,0.581791,-0.689530,8.710106,-4.691149,-1.623568,-0.653174
1516000,0.529119,-0.682347,8.657434,-4.370538,-5.073949,-2.057755
1520000,0.500388,-0.641646,8.853758,-4.401072,-7.486163,-3.202793
1524000,0.517148,-0.770933,9.028535,-4.462141,-8.005247,-3.599739
1528000,0.308852,-0.804452,9.150639,-3.637713,-7.898377,-3.905083
1532000,0.160412,-0.833182,8.997410,-2.614812,-7.516697,-3.523403
1536000,0.081403,-0.725443,8.925584,-2.904888,-6.692270,-2.912716
1540000,0.088585,-0.780510,9.045294,-2.965957,-4.783873,-2.332564
1544000,0.134075,-0.866701,9.105149,-2.996492,-2.371660,-1.630274
1548000,0.196325,-0.823605,9.155427,-2.599545,-0.463263,-1.156991
1552000,0.299275,-0.835576,9.131485,-2.294202,1.093989,-0.943251
1556000,0.292093,-0.821211,9.162610,-1.805652,2.971852,-0.714243
1560000,0.167594,-0.830788,9.085996,-1.469774,4.406967,-0.546304
1564000,0.375890,-0.804452,8.983045,-1.775118,5.170325,-0.485235
1568000,0.313640,-0.732626,8.995016,-1.973591,5.048188,-0.683709
1572000,0.191536,-0.792481,8.726865,-2.156797,3.857348,-0.637907
1576000,-0.014365,-0.816423,8.834604,-2.507942,2.025287,-0.836380
1580000,-0.064643,-0.823605,8.743625,-2.935423,0.468035,-0.760045
1584000,0.059855,-0.782904,8.611943,-3.118629,-0.295324,-0.531037
1588000,0.086191,-0.861913,8.377312,-3.179698,-1.364026,-0.607373
1592000,0.129287,-0.794875,8.422802,-3.943056,-2.249522,-0.653174
1596000,0.246603,-0.948104,8.616732,-3.927789,-2.478530,-0.775312
1600000,0.134075,-0.955287,8.664616,-3.897255,-2.493797,-1.004319
1604000,-0.059855,-0.919373,8.640674,-3.744583,-2.951812,-0.943251
1608000,-0.043096,-0.950498,8.681376,-3.622446,-3.531965,-0.500503
1612000,-0.079009,-0.986411,8.779537,-3.973591,-2.615934,-0.118823
1616000,0.002394,-1.007959,8.963891,-3.225499,-0.066316,0.797207
1620000,0.014365,-1.043872,8.877700,-3.393438,1.689409,1.316291
1624000,-0.009577,-1.098939,8.853758,-3.378171,2.269562,1.545299
1628000,0.110133,-1.072602,8.947132,-2.996492,3.216127,2.064383
1632000,0.296881,-1.074997,8.995016,-2.706415,2.880249,1.881177
1636000,0.423774,-1.108515,9.078813,-2.278934,2.101623,1.530032
1640000,0.502782,-1.149217,9.169792,-1.637713,1.155058,0.583467
1644000,0.442927,-1.151611,9.198523,-0.706415,0.086356,0.049116
1648000,0.260968,-1.139640,9.105149,0.469157,-0.967079,0.110184
1652000,0.160412,-1.122881,9.018958,0.789768,-2.142652,0.033849
1656000,0.213084,-1.189918,9.109938,0.667630,-2.829675,0.094917
1660000,0.117316,-1.127669,9.028535,0.759233,-4.066316,0.155986
1664000,0.095768,-1.144428,9.066842,0.759233,-5.058682,0.720871
1668000,0.119710,-1.163582,9.138668,0.667630,-4.875476,1.331558
1672000,0.229843,-1.022324,8.947132,0.255417,-3.623568,1.759039
1676000,0.337582,-0.995988,9.093178,-0.080461,-2.386927,1.728505
1680000,0.521936,-0.960075,9.052477,0.285951,-0.203721,2.064383
1684000,0.390255,-0.933739,8.947132,0.652363,1.658875,2.125452
1688000,0.423774,-0.835576,8.880095,0.667630,2.758112,1.820108
1692000,0.591368,-0.818817,8.913613,0.438623,3.261928,1.453696
1696000,0.418985,-0.773327,8.813056,0.438623,3.658875,1.407894
1700000,0.337582,-0.687136,8.815451,0.911905,2.895516,1.056749
1704000,0.354342,-0.744597,8.690952,1.018775,1.643608,1.285757
1708000,0.404620,-0.641646,8.686164,1.110379,0.651241,0.919345
1712000,0.483629,-0.569820,8.631097,1.217249,-0.112117,0.827742
1716000,0.397437,-0.612916,8.315063,1.079844,-3.028148,0.201787
1720000,0.588974,-0.536301,8.367735,0.362287,-3.867843,-0.195159
1724000,0.612916,-0.557849,8.202535,-0.370538,-4.524331,-0.744777
1728000,0.627281,-0.581791,8.271967,-1.683514,-5.165553,-1.095922
1732000,0.636858,-0.579397,8.377312,-2.401072,-4.875476,-1.447067
1736000,0.612916,-0.624887,8.291121,-3.118629,-4.829675,-1.996686
1740000,0.531513,-0.687136,8.418014,-3.683514,-4.783873,-2.256228
1744000,0.430956,-0.708684,8.535329,-3.668247,-4.051049,-2.347831
1748000,0.304064,-0.715866,8.590396,-3.652980,-3.058682,-2.210426
1752000,0.275333,-0.811634,8.631097,-3.683514,-3.028148,-1.996686
1756000,0.287304,-0.907402,8.611943,-3.851454,-2.707537,-2.011953
1760000,0.287304,-0.936133,8.712500,-3.698782,-2.539598,-1.569205
1764000,0.272939,-1.003170,8.834604,-3.271301,-2.646469,-1.599739
1768000,0.186748,-1.063026,8.927979,-2.828552,-2.478530,-1.416533
1772000,0.028730,-1.019930,8.772355,-2.843820,-3.073950,-1.111190
1776000,0.045490,-1.043872,8.731653,-3.088094,-3.379293,-0.668442
1780000,0.035913,-1.130063,8.899248,-2.889621,-3.455629,-0.088289
1784000,0.227449,-1.098939,8.746018,-2.538476,-3.211354,0.583467
1788000,0.270545,-1.058237,8.705317,-2.324736,-3.241888,0.461329
1792000,0.426168,-0.986411,8.626308,-2.309469,-2.478530,0.446062
1796000,0.507571,-1.027112,8.781932,-3.362904,-2.035782,-0.210426
1800000,0.476446,-0.972046,8.880095,-3.576644,-1.302957,-0.073022
1804000,0.404620,-1.070208,8.877700,-3.454507,-1.180820,-0.164625
1808000,0.282516,-1.048660,8.973468,-3.607178,-0.722805,-0.027220
1812000,0.442927,-1.132457,9.002198,-3.393438,-0.218988,0.018581
1816000,0.435745,-1.067814,9.174581,-3.225499,0.406966,-0.073022
1820000,0.471658,-1.060631,9.315839,-2.538476,1.155058,-0.515770
1824000,0.486023,-1.041478,9.253590,-1.576644,1.536737,-0.729510
1828000,0.517148,-1.072602,9.255983,-0.569010,0.819180,-1.447067
1832000,0.497994,-1.125275,9.270349,0.438623,-0.112117,-2.088289
1836000,0.213084,-1.106121,9.222465,0.530226,-0.783873,-2.378365
1840000,0.033519,-1.201889,9.160215,1.614195,-1.577766,-2.378365
1844000,-0.009577,-1.209072,8.927979,2.927173,-2.066316,-1.844014
1848000,-0.112527,-1.110910,8.719683,3.217249,-2.967079,-1.508136
1852000,-0.088585,-1.060631,8.702923,3.217249,-3.913644,-1.156991
1856000,-0.038307,-1.017536,8.839393,2.331753,-4.035782,-0.882182
1860000,0.064643,-1.046266,8.760384,1.904272,-2.249522,-0.256228
1864000,0.035913,-0.945710,8.650250,1.568394,-1.531965,0.064383
1868000,0.045490,-0.921768,8.386889,0.972974,-1.257156,0.217055
1872000,-0.038307,-0.969652,8.367735,0.347020,-0.554866,0.720871
1876000,-0.153229,-1.022324,8.252813,-0.416339,0.269562,1.301024
1880000,-0.047884,-0.988805,8.197746,-1.759850,0.987119,2.339192
1884000,0.002394,-1.010353,8.204929,-2.981224,1.124524,2.751406
1888000,0.193930,-0.933739,8.317456,-3.805652,1.261928,3.102551
1892000,0.320823,-0.859518,8.391677,-5.057561,1.277195,3.194154
1896000,0.337582,-0.938527,8.461109,-5.851454,1.032921,2.934612
1900000,0.237026,-0.976834,8.762778,-6.492675,0.620707,2.675070
1904000,0.210690,-0.995988,8.870518,-6.691149,0.468035,2.797207
1908000,0.215478,-1.029507,9.002198,-6.324736,-0.218988,3.117818
1912000,0.146046,-1.000776,8.956709,-5.943057,-0.844942,3.331558
1916000,0.296881,-1.039083,9.047688,-5.225499,-0.829675,3.530032
1920000,0.409408,-1.022324,9.109938,-4.614813,-0.707537,3.484231
1924000,0.483629,-1.019930,9.179369,-3.958324,-0.844942,3.255223
1928000,0.404620,-1.108515,9.052477,-3.301835,-0.921278,2.858276
1932000,0.323217,-1.027112,9.045294,-2.660614,-1.593034,2.644536
1936000,0.256180,-1.151611,8.942344,-1.988858,-1.867843,2.354459
1940000,0.160412,-1.082179,8.860941,-1.576644,-2.341125,2.354459
1944000,0.248997,-1.074997,9.014170,-0.416339,-2.142652,2.507131
1948000,0.229843,-1.074997,8.877700,0.881371,-2.051049,3.102551
1952000,0.229843,-0.943315,8.609550,0.698165,-2.463263,3.026215
1956000,0.395043,-0.998382,8.798691,0.102745,-1.944179,2.858276
1960000,0.519542,-1.043872,8.757990,-0.110996,-0.951812,3.209421
1964000,0.478840,-0.969652,8.552089,-0.614812,-0.783873,2.659803
1968000,0.493206,-0.986411,8.511387,-0.798018,-0.921278,2.537665
1972000,0.447716,-1.019930,8.432379,-0.782751,-1.028148,2.308658
1976000,0.383072,-0.933739,8.362947,-1.301835,-1.318224,2.201787
1980000,0.399832,-0.921768,8.564059,-1.912522,-1.409827,2.094917
1984000,0.514753,-0.919373,8.669404,-1.836186,-1.135018,1.865910
1988000,0.555455,-0.876278,8.647857,-1.927789,-1.211354,1.301024
1992000,0.486023,-0.876278,8.769960,-1.607178,-1.593034,0.812474
1996000,0.474052,-0.828394,8.746018,-1.271301,-1.547232,0.720871
