time_us,ax,ay,az,gx,gy,gz
0,1.900996,-0.744597,8.645462,-0.813286,-1.348759,-0.057755
4000,1.881842,-0.711078,8.552089,-1.088094,-0.783873,0.018581
8000,1.915361,-0.778116,8.511387,-1.210232,-0.203721,-0.103556
12000,1.912967,-0.713472,8.559271,-1.317102,0.025287,-0.103556
16000,1.905785,-0.782904,8.468291,-1.500308,0.422234,-0.256228
20000,1.874660,-0.718261,8.604761,-1.393438,0.406966,-0.408900
24000,1.932121,-0.780510,8.592790,-1.561377,0.391699,-0.439434
28000,1.929727,-0.730232,8.556877,-1.561377,0.620707,-0.653174
32000,2.013524,-0.778116,8.554482,-1.423972,0.803913,-1.019587
36000,1.991976,-0.833182,8.520964,-1.607178,0.437501,-1.141724
40000,2.049437,-0.799663,8.535329,-1.576644,0.147424,-1.416533
44000,2.087744,-0.794875,8.640674,-1.301835,0.177959,-1.813480
48000,2.092532,-0.782904,8.583213,-0.996492,0.055821,-2.240961
52000,2.099715,-0.857124,8.671799,-0.782751,0.177959,-2.943251
56000,1.999158,-0.768539,8.678981,-0.599545,0.361165,-3.095922
60000,1.910573,-0.878672,8.719683,-0.080461,1.170325,-3.080655
64000,1.927332,-0.885855,8.638280,0.469157,1.872615,-3.080655
68000,1.905785,-0.883460,8.475474,0.316485,1.735211,-2.729510
72000,1.968034,-0.895431,8.588001,0.362287,1.567272,-2.668442
76000,1.932121,-0.873884,8.518570,0.011142,1.567272,-2.668442
80000,1.948880,-0.869095,8.475474,-0.126262,1.414600,-2.729510
84000,2.063802,-0.873884,8.305486,-0.278934,1.109257,-2.882182
88000,2.068590,-0.864307,8.353370,-0.477408,1.048188,-3.065388
92000,2.078167,-0.857124,8.403648,-0.660614,1.002386,-3.416533
96000,2.090138,-0.859518,8.444349,-1.301835,0.162692,-3.706610
100000,2.075773,-0.907402,8.501810,-1.256034,-0.615934,-3.966152
104000,2.075773,-0.890643,8.746018,-1.042293,-1.684637,-4.225693
108000,2.097321,-0.871489,8.683769,-0.813286,-2.829675,-4.134090
112000,2.188300,-0.847547,8.841787,-0.309469,-3.348759,-4.546304
116000,2.197877,-0.814029,8.841787,-0.172064,-3.593034,-4.760045
120000,2.207454,-0.852336,8.930372,0.591295,-2.875476,-4.683709
124000,2.166753,-0.864307,8.860941,0.927172,-2.631201,-4.958518
128000,2.214637,-0.811634,8.702923,1.110379,-2.463263,-4.836380
132000,2.305616,-0.794875,8.707711,0.896638,-2.478530,-4.744777
136000,2.384625,-0.754174,8.650250,0.408088,-1.669369,-4.805846
140000,2.322376,-0.766145,8.626308,0.392821,-1.165553,-4.927983
144000,2.430115,-0.675165,8.497022,-0.080461,-1.150285,-4.851647
148000,2.571373,-0.706290,8.520964,-0.584278,-0.860209,-5.111189
152000,2.604892,-0.708684,8.693346,-1.072828,0.116890,-5.172258
156000,2.698265,-0.687136,8.566454,-1.317102,0.864982,-6.057755
160000,2.738967,-0.663194,8.640674,-1.500308,0.987119,-6.531037
164000,2.719813,-0.667982,8.537724,-1.607178,1.338264,-7.385999
168000,2.695871,-0.756568,8.719683,-1.347636,0.926050,-7.798213
172000,2.667141,-0.778116,8.736442,-0.782751,0.742844,-8.363098
176000,2.657564,-0.818817,8.777143,-0.156797,0.681776,-8.882182
180000,2.755726,-0.758962,8.714894,0.316485,0.590173,-9.126457
184000,2.686294,-0.792481,8.722076,0.270684,0.727577,-9.630274
188000,2.746149,-0.802058,8.786720,0.499691,0.651241,-10.088289
192000,2.700660,-0.809240,8.748413,0.881371,1.200860,-10.469969
196000,2.719813,-0.794875,8.789114,1.171447,1.429867,-10.714244
200000,2.765303,-0.826000,8.789114,1.339386,1.872615,-11.065389
204000,2.853889,-0.799663,8.772355,1.721066,3.155058,-10.943251
208000,2.952051,-0.766145,8.760384,2.011142,3.948951,-11.676076
212000,3.026271,-0.770933,8.683769,2.514959,4.864982,-11.706610
216000,3.078943,-0.708684,8.678981,2.805035,5.750478,-12.103557
220000,3.153164,-0.711078,8.571242,3.018775,6.498569,-12.912717
224000,3.198653,-0.665588,8.465898,3.034043,6.788646,-12.927984
228000,3.236961,-0.679953,8.353370,2.850837,6.483303,-13.950885
232000,3.229778,-0.665588,8.286332,2.698165,6.254295,-14.485236
236000,3.169923,-0.646434,8.106767,2.209615,4.895516,-15.218060
240000,3.308787,-0.663194,7.967903,1.034043,3.567272,-15.981419
244000,3.339911,-0.737414,8.056489,0.377554,2.239028,-16.897449
248000,3.380613,-0.670376,8.133103,-0.492675,0.513837,-17.782946
252000,3.490746,-0.727837,8.090008,-0.599545,-0.829675,-18.912716
256000,3.524265,-0.675165,8.063671,-1.011759,-2.234255,-20.149357
260000,3.596091,-0.744597,8.291121,-1.210232,-3.974713,-21.569204
264000,3.610456,-0.737414,8.441956,-1.027026,-5.257155,-22.973785
268000,3.730166,-0.869095,8.604761,-0.752217,-6.035781,-23.966150
272000,3.720589,-0.854730,8.748413,-0.126262,-5.287690,-24.592106
276000,3.691859,-0.785298,8.690952,0.453890,-4.188453,-25.340197
280000,3.715801,-0.900220,8.640674,0.759233,-3.730438,-26.195158
284000,3.727772,-0.830788,8.784326,1.385188,-2.707537,-26.714243
288000,3.842694,-0.823605,8.734048,1.293585,-1.760972,-26.958517
292000,4.120421,-0.818817,8.872911,0.927172,-0.051049,-27.798212
296000,4.249708,-0.804452,8.983045,0.713432,2.177959,-28.683708
300000,4.295198,-0.816423,8.906430,1.293585,3.719944,-29.905083
304000,4.446033,-0.849942,8.947132,1.736333,5.032921,-31.416533
308000,4.534618,-0.826000,9.028535,2.255417,6.788646,-33.111191
312000,4.580108,-0.907402,9.026140,3.064577,7.231394,-34.989052
316000,4.472369,-0.905008,8.961497,4.240149,6.483303,-37.050121
320000,4.558560,-0.926556,8.875306,4.896638,5.414600,-39.141724
324000,4.517859,-1.031901,8.834604,5.919539,3.597806,-41.202793
328000,4.273650,-1.003170,8.690952,7.369921,-0.112117,-43.599739
332000,4.333505,-1.029507,8.844181,8.850837,-4.615934,-45.813480
336000,4.244920,-0.912191,8.805874,10.255417,-9.135018,-47.828747
340000,4.268862,-0.931344,8.779537,11.385188,-13.898377,-49.935616
344000,4.292804,-0.974440,8.772355,12.148546,-17.272423,-52.057755
348000,4.259285,-0.933739,8.628703,12.072210,-19.440363,-54.210426
352000,4.187459,-0.960075,8.525752,11.675264,-21.486164,-56.103554
356000,4.096479,-1.098939,8.518570,11.171448,-22.967079,-57.477600
360000,3.988740,-1.022324,8.463503,10.072210,-23.806774,-58.286762
364000,3.962404,-1.154005,8.444349,8.774501,-22.539598,-59.019585
368000,3.797204,-1.086968,8.465898,6.316485,-20.081583,-58.836380
372000,3.857059,-1.101333,8.530540,4.606562,-17.516699,-59.080654
376000,3.852271,-1.098939,8.441956,3.293585,-13.226622,-58.866913
380000,3.926491,-1.110910,8.511387,1.950073,-8.188454,-58.408897
384000,3.916914,-1.127669,8.324639,0.423356,-3.241888,-58.698975
388000,3.974375,-1.175553,8.418014,-0.904888,1.170325,-58.378365
392000,3.995923,-1.189918,8.497022,-1.912522,4.651241,-58.698975
396000,4.129998,-1.216254,8.518570,-2.721682,6.452768,-59.447067
400000,4.446033,-1.163582,8.695741,-2.798018,6.529104,-60.927982
404000,4.515464,-1.151611,8.765172,-2.233133,7.063455,-62.973785
408000,4.503493,-1.151611,8.746018,-1.744583,6.025287,-64.805847
412000,4.402937,-1.209072,8.741230,-1.072828,4.956585,-66.744774
416000,4.199430,-1.209072,8.631097,-0.538476,2.437501,-68.393631
420000,3.909731,-1.266533,8.722076,0.484424,-2.829675,-69.034851
424000,3.916914,-1.417367,8.784326,3.064577,-7.348759,-69.294395
428000,4.106056,-1.290475,8.535329,3.232516,-7.669369,-69.462334
432000,4.304775,-1.374272,8.465898,4.591295,-11.058682,-70.943253
436000,4.946421,-1.211466,8.317456,0.835569,-7.028148,-73.584473
440000,4.668694,-1.345541,8.556877,-0.019392,-4.921278,-75.523399
444000,4.338294,-1.448492,8.710106,1.721066,-6.005247,-76.531036
448000,4.450821,-1.431733,8.918402,3.339386,-7.425095,-77.782944
452000,4.596867,-1.443704,8.882488,4.392821,-6.829675,-79.218056
456000,4.532224,-1.383849,8.590396,5.553127,-5.104484,-80.500504
460000,4.393360,-1.426944,8.303091,6.270684,-4.524331,-81.508133
464000,4.228160,-1.446098,8.049306,6.347020,-4.295324,-82.042488
468000,4.230555,-1.400608,8.034941,5.232516,-4.188453,-82.424164
472000,4.347870,-1.369483,8.054094,4.133279,-4.982347,-83.645538
476000,4.323928,-1.441309,8.164227,3.079844,-5.241889,-84.424164
480000,4.393360,-1.403002,8.295909,2.408089,-5.302957,-85.523399
484000,4.398149,-1.453280,8.616732,2.087478,-5.348759,-86.378365
488000,4.544195,-1.403002,8.789114,2.713432,-3.104484,-87.141724
492000,4.534618,-1.374272,8.815451,3.217249,0.483302,-87.905083
496000,4.450821,-1.414973,9.220071,3.247783,3.948951,-89.202789
500000,4.556166,-1.431733,8.714894,8.377554,8.880248,-89.599739
504000,4.553771,-1.304840,8.238448,5.293585,7.658875,-91.523399
508000,4.604050,-1.412579,8.295909,3.614195,11.933683,-93.798210
512000,4.326323,-1.575385,8.329428,2.056943,16.300097,-95.477600
516000,3.957615,-1.647211,8.305486,1.079844,15.231394,-95.676071
520000,3.924097,-1.750161,8.473080,0.774501,13.674142,-96.851646
524000,3.919308,-1.802834,8.480263,1.736333,12.666508,-97.798210
528000,3.849876,-1.805228,8.346188,2.499691,11.536737,-99.538673
532000,3.665523,-1.929727,8.140285,3.354653,10.025287,-100.439430
536000,3.586514,-1.908179,7.817069,3.308852,7.384066,-100.805847
540000,3.689465,-1.927332,8.013393,3.125646,3.735211,-101.737144
544000,3.727772,-1.877054,8.137892,2.667631,0.193226,-103.065384
548000,3.641581,-1.886631,8.233660,3.186715,-2.096850,-104.088287
552000,3.651158,-1.793257,8.231265,3.644730,-4.783873,-104.958519
556000,3.615245,-1.783680,8.111555,3.446256,-6.295323,-105.660805
560000,3.593697,-1.766921,8.020576,2.713432,-4.890743,-106.729507
564000,3.624821,-1.690306,8.125920,0.972974,-2.234255,-107.248596
568000,3.509900,-1.826776,8.202535,-0.446873,0.422234,-107.645538
572000,3.275268,-1.869871,8.288726,-1.851454,2.666508,-108.042488
576000,3.122039,-1.778892,8.317456,-3.332370,5.613073,-107.538673
580000,2.997540,-1.821988,8.475474,-4.904889,9.292462,-106.317299
584000,3.131616,-1.855506,8.724471,-6.263667,14.071088,-105.523399
588000,3.272874,-1.867477,8.963891,-6.645347,20.849714,-104.515770
592000,3.450045,-1.915361,9.035717,-6.401072,27.536737,-104.164627
596000,3.512294,-1.999158,9.217676,-6.416339,33.628342,-104.118820
600000,3.605668,-2.013524,9.404425,-5.317102,39.384064,-104.363098
604000,3.421314,-2.042254,9.157822,-3.683514,43.032921,-104.653175
608000,3.392584,-1.987187,8.839393,-3.652980,43.185593,-105.508133
612000,3.416526,-2.056619,8.896853,-3.256034,43.155056,-106.912712
616000,3.385401,-1.991976,8.714894,-2.630080,42.727577,-108.286758
620000,3.383007,-2.070984,8.693346,-1.561377,39.948952,-110.210426
624000,3.454833,-2.008735,8.604761,-0.691148,35.948952,-112.714241
628000,3.438074,-2.039860,8.631097,0.728699,31.353531,-115.492867
632000,3.296816,-2.037466,8.628703,0.530226,26.987120,-117.767677
636000,3.186682,-2.114080,8.738836,1.476791,23.643608,-120.164627
640000,2.975993,-2.066196,8.707711,2.316485,20.101622,-122.149361
644000,2.779668,-2.080561,8.609550,3.079844,17.384066,-123.828743
648000,2.571373,-2.130840,8.453926,3.278317,16.040554,-125.034851
652000,2.126051,-2.049437,8.358158,3.293585,14.758111,-125.431801
656000,1.977611,-2.042254,8.197746,2.163814,14.116890,-125.248596
660000,1.812411,-2.011129,8.209718,0.682898,15.781012,-124.683708
664000,1.692701,-1.965640,8.207323,-0.736950,17.964218,-123.584473
668000,1.663970,-1.982399,8.090008,-1.820919,20.116890,-122.088287
672000,1.853112,-1.910573,8.173804,-3.225499,22.498569,-121.721878
676000,2.260126,-1.731008,8.101978,-6.034659,26.697042,-121.767677
680000,2.240973,-1.838747,8.216900,-7.103362,30.437500,-121.370728
684000,2.145205,-1.853112,8.240842,-6.798018,30.498569,-121.538673
688000,2.571373,-1.786075,8.341399,-8.645347,33.506203,-122.485237
692000,2.755726,-1.862689,8.377312,-10.996491,38.086357,-124.378365
696000,2.564190,-1.956063,8.355764,-13.378171,40.819180,-126.027222
700000,2.190695,-2.025495,8.492233,-14.691148,41.857349,-127.202789
704000,2.130840,-2.138022,8.475474,-14.691148,41.994751,-128.240967
708000,2.090138,-2.114080,8.322245,-14.859088,41.399334,-129.859283
712000,2.030283,-2.152387,8.264784,-14.141530,38.590172,-131.477600
716000,1.941698,-2.197877,8.238448,-14.401073,35.429867,-133.187531
720000,1.912967,-2.116474,8.532935,-15.072827,32.590172,-134.286758
724000,1.929727,-2.272097,8.724471,-15.301835,31.109257,-135.844009
728000,1.922544,-2.315193,8.784326,-14.874354,30.391699,-136.622635
732000,1.922544,-2.315193,8.853758,-14.278935,31.017653,-137.706604
736000,1.996764,-2.336741,8.951921,-13.546111,32.651241,-138.714249
740000,2.233790,-2.375048,8.746018,-13.057561,35.964218,-139.828751
744000,2.355895,-2.509123,8.877700,-13.378171,38.880249,-141.996689
748000,2.298434,-2.525883,8.674192,-14.324737,42.330631,-143.569199
752000,2.006341,-2.621651,8.872911,-15.194964,44.498569,-145.431793
756000,1.874660,-2.621651,8.927979,-16.217865,47.170326,-146.958511
760000,1.422156,-2.779668,8.813056,-16.217865,50.086357,-147.263855
764000,1.015141,-2.870648,8.657434,-15.561378,50.773376,-147.309662
768000,0.672771,-2.875436,8.561666,-15.042293,51.552006,-146.683701
772000,0.533907,-2.935291,8.501810,-14.920156,53.750477,-145.767685
776000,0.275333,-2.980781,8.358158,-14.538476,53.719944,-145.019592
780000,0.069432,-3.062184,8.259995,-13.698781,52.254295,-143.996689
784000,0.184354,-3.095703,8.468291,-12.935424,49.552006,-143.523407
788000,0.320823,-3.102885,8.559271,-12.156796,48.926048,-143.431793
792000,0.490811,-3.150769,8.374918,-11.607179,47.552006,-144.088287
796000,0.493206,-3.210624,8.030152,-11.133897,47.506203,-144.989044
800000,0.402226,-3.198653,7.819463,-11.393438,47.414600,-145.782944
804000,0.237026,-3.253720,7.800309,-11.103362,46.635975,-146.744781
808000,-0.009577,-3.131616,7.728483,-10.904889,45.002384,-146.469971
812000,-0.265756,-3.203442,7.783550,-10.507942,42.803913,-145.523407
816000,-0.122104,-3.076549,7.838616,-10.065194,41.002384,-144.790573
820000,0.057461,-3.016694,7.843405,-10.553743,41.399334,-144.347824
824000,0.031125,-3.062184,7.960721,-11.225499,43.017654,-144.347824
828000,-0.102951,-3.043030,7.785944,-11.820919,44.025288,-144.118820
832000,-0.248997,-3.011906,7.991845,-12.859088,44.468037,-143.584473
836000,-0.107739,-3.026271,8.022970,-13.652980,44.834446,-143.538666
840000,-0.102951,-3.117251,8.037335,-14.217866,47.338264,-142.760040
844000,-0.181959,-3.076549,7.888895,-14.660613,48.651241,-142.592102
848000,-0.316035,-3.069367,7.721301,-14.996491,49.597805,-142.607376
852000,-0.615310,-3.064578,7.740454,-14.599545,49.399334,-141.905075
856000,-0.907402,-3.043030,7.663840,-14.431607,48.880249,-141.340195
860000,-0.912191,-3.031059,7.675811,-14.385804,47.811546,-140.698975
864000,-1.101333,-3.026271,7.690176,-13.637713,45.521469,-140.225693
868000,-1.331176,-3.129222,7.505822,-12.935424,42.132156,-139.905075
872000,-1.556231,-3.280056,7.374141,-12.523210,38.422234,-139.172256
876000,-1.731008,-3.313575,7.419631,-12.599545,34.590172,-138.424164
880000,-2.066196,-3.383007,7.644686,-13.149163,30.864981,-137.645538
884000,-2.396596,-3.414132,7.692570,-13.866721,26.437500,-136.393631
888000,-2.686294,-3.428497,8.010999,-14.034659,23.231394,-134.836380
892000,-2.870648,-3.476381,7.967903,-14.523210,21.979485,-133.279129
896000,-3.260903,-3.497929,8.169016,-14.782752,21.857347,-130.744781
900000,-3.579332,-3.564966,8.195353,-14.401073,21.704676,-127.721878
904000,-3.742137,-3.481169,8.468291,-13.836186,22.162691,-124.851646
908000,-3.799598,-3.418920,8.389283,-12.736949,23.643608,-121.691345
912000,-4.027047,-3.416526,8.408437,-11.790385,24.773378,-118.393631
916000,-4.024653,-3.280056,8.243237,-11.164431,25.719944,-115.431801
920000,-4.060566,-3.169923,8.152257,-10.614813,26.864981,-112.882179
924000,-4.096479,-3.124433,8.286332,-9.133897,26.468035,-110.134087
928000,-4.328717,-3.129222,8.489840,-7.317102,25.628340,-107.248596
932000,-4.529830,-3.052607,8.504205,-5.210233,23.414600,-104.424164
936000,-4.606444,-2.928109,8.418014,-3.179698,20.468035,-101.569206
940000,-4.742914,-2.786851,8.482656,-1.759850,18.239027,-98.958519
944000,-4.970363,-2.640805,8.221688,-0.614812,15.292462,-95.401268
948000,-4.841076,-2.540248,8.094796,0.484424,12.010019,-91.828743
952000,-4.707001,-2.389413,8.116343,1.079844,8.055821,-89.324928
956000,-4.762067,-2.219425,8.027759,2.072211,7.506203,-86.485237
960000,-5.070919,-2.102109,7.790732,3.583661,6.971852,-82.622643
964000,-4.970363,-1.905785,7.268796,3.904272,5.017653,-79.905083
968000,-4.647145,-1.623269,7.161057,2.606562,5.506203,-77.126457
972000,-4.685453,-1.561020,6.931214,1.278317,6.513837,-74.027222
976000,-4.936844,-1.522712,6.943185,0.056943,3.857348,-70.683708
980000,-4.613626,-1.414973,6.708553,-1.820919,1.933684,-67.721878
984000,-4.359841,-1.345541,6.612785,-4.645347,0.391699,-65.492867
988000,-4.175488,-1.316811,6.512228,-7.546110,-1.394560,-63.401264
992000,-3.991134,-1.261744,6.646304,-11.240767,-3.257156,-61.492870
996000,-3.761291,-1.235408,6.845023,-15.240767,-5.226621,-59.950882
1000000,-3.524265,-1.218649,7.189788,-18.843819,-7.547232,-58.989052
1004000,-3.440468,-1.201889,7.433996,-21.714048,-9.684637,-58.256226
1008000,-3.550601,-1.154005,7.661446,-23.805651,-12.295324,-57.111191
1012000,-3.620033,-1.158794,7.910442,-25.576643,-14.112118,-55.813480
1016000,-3.608062,-1.170765,8.336611,-26.843819,-15.318225,-54.271496
1020000,-3.615245,-1.197101,8.671799,-26.920155,-15.180820,-52.897449
1024000,-3.639187,-1.228225,8.762778,-26.920155,-13.989981,-51.553936
1028000,-3.622427,-1.278504,8.987833,-25.836185,-14.173186,-49.676075
1032000,-3.701436,-1.352724,9.047688,-24.294201,-13.974713,-47.828747
1036000,-3.634398,-1.312023,9.145850,-23.576643,-14.081584,-46.897449
1040000,-3.734955,-1.312023,9.437943,-22.706415,-13.852576,-44.866913
1044000,-3.792415,-1.249773,9.481039,-21.836185,-12.677003,-43.202793
1048000,-3.904943,-1.213860,9.600749,-21.423971,-11.241889,-41.294395
1052000,-4.072537,-1.175553,9.449914,-20.950689,-9.486164,-38.744778
1056000,-4.077325,-1.106121,9.229648,-21.011759,-8.386927,-35.828747
1060000,-4.153940,-0.986411,9.248801,-21.194963,-6.875476,-32.546303
1064000,-4.106056,-0.890643,9.208099,-21.836185,-5.425095,-29.050119
1068000,-3.857059,-0.804452,9.217676,-22.080460,-3.776240,-25.844013
1072000,-3.617639,-0.749385,9.232041,-21.927788,-3.455629,-23.095922
1076000,-3.416526,-0.739808,9.157822,-21.057560,-3.104484,-20.744778
1080000,-3.186682,-0.667982,9.500193,-20.034658,-1.776240,-18.622639
1084000,-2.973598,-0.553061,9.806650,-17.866720,-0.341125,-16.576838
1088000,-2.944868,-0.486023,10.036493,-14.736949,0.926050,-14.943251
1092000,-3.021482,-0.378284,9.914390,-11.790385,0.330631,-13.538671
1096000,-2.980781,-0.256180,9.715671,-9.164431,-0.860209,-12.332564
1100000,-2.863465,-0.234632,9.746795,-6.538477,-3.165553,-10.897449
1104000,-2.734178,-0.134075,9.797073,-4.462141,-5.608301,-9.874549
1108000,-2.568978,-0.177171,9.775525,-2.553744,-7.409827,-9.019587
1112000,-2.461239,-0.016759,9.514558,-1.133896,-9.165553,-8.225694
1116000,-2.262521,0.105345,9.234436,-0.141530,-9.928912,-7.553937
1120000,-2.200271,0.026336,8.947132,0.423356,-9.211354,-6.500503
1124000,-2.173935,0.117316,8.628703,0.209615,-8.493797,-5.737144
1128000,-1.889025,0.227449,8.540117,-1.072828,-7.196087,-4.775311
1132000,-1.735796,0.131681,8.475474,-2.401072,-4.783873,-3.966152
1136000,-1.592144,0.150835,8.214506,-3.881988,-2.906011,-3.630274
1140000,-1.561020,0.174777,8.140285,-5.851454,-1.577766,-3.156991
1144000,-1.455675,0.126893,8.226477,-7.485042,-0.325858,-2.958518
1148000,-1.450886,0.000000,8.147469,-8.767485,0.773379,-2.546304
1152000,-1.422156,-0.074220,8.274361,-10.141530,0.406966,-2.057755
1156000,-1.549049,-0.172383,8.453926,-11.500309,-0.478530,-1.767678
1160000,-1.575385,-0.196325,8.542512,-12.614812,-2.035782,-1.553938
1164000,-1.438915,-0.256180,8.834604,-12.752217,-2.493797,-0.851648
1168000,-1.446098,-0.311246,8.899248,-12.309468,-3.501430,-0.561571
1172000,-1.297657,-0.347159,9.062054,-11.347637,-4.860209,-0.454701
1176000,-1.139640,-0.605733,9.191340,-9.271301,-4.890743,-0.225693
1180000,-1.194707,-0.579397,9.033323,-7.943057,-5.684637,-0.149358
1184000,-1.034295,-0.644040,9.191340,-6.691149,-6.768606,0.217055
1188000,-0.842759,-0.682347,9.038112,-6.324736,-5.883110,0.064383
1192000,-0.715866,-0.773327,9.088389,-5.805653,-5.043415,-0.027220
1196000,-0.651223,-0.802058,8.925584,-5.637713,-6.402194,-0.607373
1200000,-0.361524,-0.833182,9.255983,-5.225499,-6.615934,-1.706609
1204000,-0.308852,-0.857124,9.246407,-4.736950,-6.722805,-2.485235
1208000,-0.428562,-0.991199,9.339781,-4.110995,-6.432728,-3.447068
1212000,-0.490811,-1.137246,9.282320,-3.133896,-5.531965,-3.798213
1216000,-0.600945,-1.230620,9.117120,-2.630080,-4.707537,-3.645541
1220000,-0.639252,-1.297657,9.054871,-2.752217,-3.211354,-3.401266
1224000,-0.727837,-1.326388,8.868123,-3.133896,-2.371660,-2.943251
1228000,-0.797269,-1.371878,8.772355,-3.133896,-2.631201,-2.485235
1232000,-0.768539,-1.381454,8.853758,-3.714049,-3.348759,-1.752411
1236000,-0.701501,-1.414973,8.939949,-4.187331,-3.394560,-1.355464
1240000,-0.663194,-1.498770,8.978256,-4.599545,-2.066316,-0.851648
1244000,-0.682347,-1.532289,8.920795,-4.675881,-0.157919,0.049116
1248000,-0.732626,-1.596933,8.856153,-4.721683,0.773379,1.026215
1252000,-0.780510,-1.635240,8.894460,-4.874354,1.353531,1.560566
1256000,-0.749385,-1.599327,8.734048,-4.736950,1.521470,2.278123
1260000,-0.742203,-1.589750,8.583213,-5.194965,-0.249522,3.041482
1264000,-0.672771,-1.513135,8.619126,-5.149163,0.055821,3.881177
1268000,-0.495600,-1.424550,8.590396,-5.607179,-0.600667,4.675070
1272000,-0.122104,-1.412579,8.693346,-5.408706,-0.371659,4.949879
1276000,0.150835,-1.400608,8.607155,-5.607179,0.498570,4.598734
1280000,0.119710,-1.350330,8.698134,-5.866721,0.513837,4.476597
1284000,0.146046,-1.307234,8.734048,-6.233133,0.010020,4.140719
1288000,0.237026,-1.163582,8.736442,-6.691149,0.239028,4.232322
1292000,0.287304,-1.201889,8.846576,-6.874354,0.040554,4.033849
1296000,0.337582,-1.175553,8.817844,-6.401072,-0.341125,4.110185
1300000,0.577003,-1.285686,8.930372,-6.126263,-0.234255,3.850643
1304000,0.663194,-1.180341,8.985439,-5.866721,0.101623,3.163620
1308000,0.794875,-1.177947,9.284714,-6.004126,-0.325858,2.125452
1312000,0.766145,-1.273715,9.418790,-4.965958,-0.295324,1.194154
1316000,0.557849,-1.319205,9.217676,-3.714049,-1.135018,0.720871
1320000,0.426168,-1.335965,9.100361,-2.278934,-3.302957,0.354459
1324000,0.299275,-1.386243,8.973468,-1.988858,-3.318224,0.384994
1328000,0.248997,-1.493982,8.904037,-1.393438,-3.516698,0.598734
1332000,0.270545,-1.460463,8.741230,-1.225499,-4.066316,0.766673
1336000,0.253785,-1.474828,8.566454,-1.027026,-4.875476,0.552933
1340000,0.368707,-1.477222,8.566454,-1.042293,-6.157919,0.293391
1344000,0.306458,-1.501164,8.489840,-1.637713,-7.028148,0.171253
1348000,0.311246,-1.517924,8.592790,-2.462140,-6.096850,0.552933
1352000,0.351948,-1.489193,8.621520,-3.759850,-4.600667,0.552933
1356000,0.409408,-1.556231,8.451532,-4.523210,-2.615934,0.552933
1360000,0.248997,-1.623269,8.441956,-5.347637,-1.333492,0.949879
1364000,0.031125,-1.577779,8.415619,-5.912522,-0.661736,1.392627
1368000,-0.009577,-1.525106,8.482656,-6.507942,0.300096,1.926978
1372000,0.093374,-1.441309,8.583213,-7.454507,1.994753,2.919345
1376000,0.213084,-1.436521,8.714894,-7.820919,3.445134,3.514765
1380000,0.299275,-1.333570,8.729259,-7.576645,5.155058,3.911711
1384000,0.488417,-1.412579,8.889671,-7.240767,6.529104,3.530032
1388000,0.538695,-1.355118,8.889671,-6.645347,7.170325,2.888810
1392000,0.442927,-1.319205,8.839393,-6.019393,7.735211,2.262856
1396000,0.272939,-1.328782,8.750807,-5.057561,7.109257,2.110184
1400000,0.138864,-1.379060,8.712500,-4.110995,5.261929,1.850642
1404000,0.038307,-1.328782,8.532935,-3.210232,3.628341,1.743772
1408000,-0.011971,-1.357512,8.374918,-2.813286,1.842081,2.018581
1412000,-0.023942,-1.388637,8.276755,-2.553744,0.177959,1.865910
1416000,0.055067,-1.379060,8.145074,-2.278934,-0.997614,2.110184
1420000,0.095768,-1.398214,8.123527,-2.156797,-2.661736,1.636902
1424000,0.229843,-1.407791,7.982268,-2.752217,-3.776240,1.667436
1428000,0.366313,-1.455675,7.943961,-3.897255,-4.218988,1.346826
1432000,0.371101,-1.482011,8.044518,-5.500309,-4.432728,0.797207
1436000,0.332794,-1.539472,8.461109,-6.798018,-5.058682,0.507131
1440000,0.256180,-1.613692,8.518570,-7.164431,-5.180820,0.491864
1444000,0.239420,-1.750161,8.674192,-6.752217,-5.745705,0.781940
1448000,0.258574,-1.762132,8.803479,-7.072827,-6.218987,0.934612
1452000,0.184354,-1.735796,9.069236,-7.378171,-5.699903,1.194154
1456000,0.169988,-1.814805,9.351752,-7.362904,-4.493797,1.560566
1460000,0.162806,-1.778892,9.481039,-6.706415,-3.867843,1.957513
1464000,0.131681,-1.843535,9.437943,-6.233133,-3.806774,2.262856
1468000,0.134075,-1.776498,9.581595,-5.698782,-3.287690,2.461329
1472000,0.074220,-1.666364,9.701305,-4.782751,-1.577766,3.346826
1476000,0.079009,-1.594538,9.538500,-4.019392,-0.402194,3.514765
1480000,0.184354,-1.470040,9.387665,-3.103362,0.819180,4.003314
1484000,0.143652,-1.352724,9.097966,-2.477408,1.811547,4.140719
1488000,0.227449,-1.252167,8.997410,-2.217866,2.101623,3.911711
1492000,0.217872,-1.187524,8.815451,-1.881988,2.391699,4.003314
1496000,0.213084,-1.137246,8.712500,-2.049927,2.101623,3.835375
1500000,0.299275,-1.039083,8.650250,-2.278934,1.093989,3.178887
1504000,0.227449,-1.060631,8.667010,-2.294202,0.361165,2.873543
1508000,0.117316,-1.110910,8.686164,-2.385804,-0.173186,2.675070
1512000,0.035913,-1.072602,8.473080,-2.477408,-1.012881,2.522398
1516000,-0.040701,-1.161188,8.298303,-2.660614,-1.409827,2.614001
1520000,-0.079009,-1.122881,8.303091,-3.179698,-2.096850,2.797207
1524000,0.023942,-1.113304,8.592790,-3.530843,-1.776240,3.087284
1528000,0.076614,-1.137246,8.647857,-4.019392,-0.799140,3.239955
1532000,0.136469,-1.122881,8.707711,-4.492675,0.437501,3.194154
1536000,0.227449,-1.197101,8.765172,-4.080462,1.750478,3.194154
1540000,0.208296,-1.189918,8.667010,-3.637713,2.666508,2.812474
1544000,0.172383,-1.192312,8.700529,-3.240766,3.689409,2.461329
1548000,0.050278,-1.268927,8.619126,-2.996492,4.315363,3.026215
1552000,-0.045490,-1.323994,8.619126,-2.950690,3.964219,3.316291
1556000,0.057461,-1.338359,8.738836,-3.011759,3.216127,3.438429
1560000,0.205901,-1.350330,8.760384,-2.538476,2.819180,3.468963
1564000,0.205901,-1.335965,8.726865,-2.370538,1.658875,2.904078
1568000,0.052672,-1.364695,8.604761,-2.080461,0.773379,2.720871
1572000,0.064643,-1.350330,8.609550,-2.340003,-0.982347,2.293390
1576000,0.146046,-1.371878,8.674192,-1.943056,-2.753339,2.446062
1580000,-0.007183,-1.414973,8.769960,-1.317102,-3.669369,2.400261
1584000,0.019154,-1.340753,8.559271,-1.698782,-4.585400,2.278123
1588000,0.129287,-1.357512,8.595184,-1.759850,-4.921278,2.415528
1592000,0.299275,-1.422156,8.669404,-1.943056,-4.341125,2.323925
1596000,0.328006,-1.405396,8.705317,-2.401072,-4.081583,2.003314
1600000,0.332794,-1.410185,8.693346,-2.340003,-3.379293,1.713238
1604000,0.328006,-1.486799,8.791509,-2.294202,-3.547232,1.560566
1608000,0.222661,-1.429338,8.841787,-2.645346,-3.333492,1.484230
1612000,0.205901,-1.441309,8.882488,-2.736950,-2.951812,1.942245
1616000,-0.004788,-1.484405,8.918402,-2.599545,-2.142652,2.201787
1620000,0.167594,-1.388637,9.088389,-3.011759,-0.295324,3.133085
1624000,0.301669,-1.422156,9.153033,-3.149163,1.903150,3.713238
1628000,0.301669,-1.419762,9.215282,-3.500308,3.582539,3.835375
1632000,0.361524,-1.460463,9.074024,-3.118629,4.819180,3.926979
1636000,0.232238,-1.381454,8.920795,-3.103362,5.231394,3.743773
1640000,0.325611,-1.391031,9.018958,-3.240766,4.345898,3.835375
1644000,0.371101,-1.355118,9.040505,-2.477408,4.025287,3.728505
1648000,0.205901,-1.321599,9.014170,-1.652980,2.727577,3.697971
1652000,0.196325,-1.268927,9.085996,-1.103362,1.384066,3.346826
1656000,0.380678,-1.295263,9.179369,-0.523209,1.384066,2.614001
1660000,0.179565,-1.319205,9.138668,0.408088,1.292463,2.293390
1664000,0.081403,-1.417367,8.983045,1.247783,0.513837,2.140719
1668000,-0.045490,-1.441309,8.712500,1.675264,0.208493,2.155986
1672000,-0.021548,-1.441309,8.547300,1.293585,-0.035782,2.461329
1676000,0.007183,-1.525106,8.693346,0.759233,-0.799140,2.384994
1680000,0.016759,-1.534683,8.755595,0.957707,-1.394560,2.278123
1684000,-0.043096,-1.568202,8.762778,1.583661,-1.623568,2.522398
1688000,-0.011971,-1.465251,8.762778,1.980608,-1.364026,2.751406
1692000,0.050278,-1.553837,8.669404,1.904272,-0.417461,3.209421
1696000,-0.090980,-1.537078,8.700529,1.751600,0.864982,3.560566
1700000,-0.146046,-1.575385,8.520964,1.629462,1.628341,4.339192
1704000,-0.023942,-1.510741,8.391677,0.453890,0.971852,5.117818
1708000,0.148441,-1.549049,8.441956,-0.492675,0.116890,4.965147
1712000,0.268151,-1.498770,8.518570,-0.981224,-0.646469,4.980413
1716000,0.287304,-1.486799,8.492233,-1.408705,-1.898377,4.934612
1720000,0.253785,-1.498770,8.542512,-1.866720,-2.020514,4.461329
1724000,0.160412,-1.484405,8.595184,-1.866720,-1.379293,4.614001
1728000,-0.071826,-1.429338,8.585608,-1.851454,-1.684637,4.812475
1732000,-0.102951,-1.498770,8.657434,-2.217866,-1.898377,5.194154
1736000,-0.074220,-1.462857,8.667010,-2.645346,-1.516698,5.621635
1740000,-0.031125,-1.479617,8.662222,-2.706415,-0.478530,6.690337
1744000,-0.031125,-1.376666,8.631097,-2.935423,0.864982,7.346826
1748000,0.225055,-1.441309,8.621520,-3.042293,3.078722,7.636902
1752000,0.442927,-1.407791,8.540117,-3.378171,5.139791,7.575834
1756000,0.660800,-1.304840,8.669404,-3.225499,7.460402,7.682703
1760000,0.821211,-1.283292,8.657434,-2.782751,9.322997,6.491864
1764000,0.778116,-1.381454,8.556877,-2.324736,9.445134,5.652169
1768000,0.708684,-1.393425,8.664616,-1.439240,8.498569,4.766673
1772000,0.545878,-1.410185,8.638280,-1.240766,6.712310,4.018581
1776000,0.572214,-1.474828,8.757990,-0.660614,4.452768,3.316291
1780000,0.418985,-1.498770,8.844181,0.453890,1.765745,2.644536
1784000,0.186748,-1.477222,8.772355,1.598928,-1.623568,2.430795
1788000,0.203507,-1.508347,8.772355,2.056943,-3.989980,2.140719
1792000,0.177171,-1.429338,8.631097,2.301218,-4.646469,2.384994
1796000,0.186748,-1.443704,8.518570,2.194348,-6.081583,2.293390
1800000,0.430956,-1.414973,8.329428,1.736333,-6.203721,2.278123
1804000,0.483629,-1.307234,8.207323,0.514959,-5.058682,2.262856
1808000,0.500388,-1.285686,8.303091,-0.950690,-3.699904,2.186520
1812000,0.588974,-1.235408,8.219295,-1.866720,-1.150285,2.094917
1816000,0.411803,-1.216254,8.403648,-2.767484,1.643608,2.232322
1820000,0.323217,-1.185130,8.341399,-3.637713,3.490936,2.201787
1824000,0.337582,-1.201889,8.379706,-3.912522,5.093989,2.461329
1828000,0.323217,-1.221043,8.382100,-4.401072,6.101623,2.507131
1832000,0.244209,-1.280898,8.432379,-4.660614,5.613073,2.690337
1836000,0.289698,-1.221043,8.494628,-5.194965,5.109257,2.904078
1840000,0.359130,-1.158794,8.760384,-5.210233,4.651241,2.675070
1844000,0.588974,-1.199495,8.781932,-4.965958,4.758111,1.957513
1848000,0.476446,-1.194707,8.741230,-4.309469,4.040555,1.301024
1852000,0.418985,-1.290475,8.932767,-3.775118,3.032921,0.491864
1856000,0.361524,-1.350330,8.997410,-2.721682,2.437501,0.186520
1860000,0.289698,-1.352724,8.942344,-2.110996,1.933684,-0.164625
1864000,0.299275,-1.465251,8.985439,-1.027026,1.322997,-0.760045
1868000,0.282516,-1.460463,9.105149,0.255417,0.788646,-0.744777
1872000,0.328006,-1.508347,8.985439,1.675264,0.483302,-1.416533
1876000,0.301669,-1.486799,9.129091,2.728699,0.529104,-1.767678
1880000,0.289698,-1.493982,9.018958,3.522592,0.544371,-2.118823
1884000,0.074220,-1.580173,8.930372,3.950073,0.910783,-2.195159
1888000,-0.095768,-1.630451,8.904037,4.270684,0.834447,-1.828747
1892000,-0.122104,-1.599327,8.865729,4.423356,1.002386,-1.263861
1896000,-0.141258,-1.687912,8.791509,4.316485,1.093989,-0.973785
1900000,-0.196325,-1.656788,8.659827,4.179081,1.261928,-0.011953
1904000,-0.263362,-1.687912,8.552089,3.736333,1.124524,0.278123
1908000,-0.198719,-1.735796,8.437167,3.156180,2.010020,1.026215
1912000,-0.232238,-1.656788,8.391677,2.224883,2.742844,1.774307
1916000,-0.213084,-1.637634,8.348581,1.156180,3.216127,2.140719
1920000,-0.038307,-1.644817,8.238448,0.240150,3.857348,2.675070
1924000,0.071826,-1.680730,8.226477,-0.675881,4.422234,2.598734
1928000,0.047884,-1.625663,8.372523,-1.423972,4.483303,2.323925
1932000,0.014365,-1.596933,8.298303,-2.004125,4.101623,2.186520
1936000,-0.102951,-1.551443,8.398860,-2.462140,3.322997,1.820108
1940000,-0.251391,-1.584962,8.434772,-2.614812,1.948951,2.094917
1944000,-0.339977,-1.482011,8.650250,-2.477408,0.880249,2.659803
1948000,-0.368707,-1.465251,8.738836,-2.431606,0.819180,3.224688
1952000,-0.311246,-1.345541,8.580819,-2.507942,0.910783,3.591101
1956000,-0.215478,-1.252167,8.554482,-2.706415,1.613073,4.079650
1960000,-0.124498,-1.199495,8.516175,-3.179698,2.010020,4.094917
1964000,-0.086191,-1.130063,8.523358,-3.423972,2.483302,4.201787
1968000,0.067038,-1.218649,8.540117,-3.317102,2.926050,3.896444
1972000,0.153229,-1.108515,8.650250,-3.133896,3.155058,3.407894
1976000,0.246603,-1.132457,8.731653,-2.782751,3.811547,2.766673
1980000,0.342371,-1.163582,8.657434,-2.217866,4.452768,1.850642
1984000,0.304064,-1.154005,8.619126,-1.637713,3.475669,1.285757
1988000,0.174777,-1.233014,8.750807,-1.088094,1.857348,0.278123
1992000,0.040701,-1.328782,8.717288,-0.492675,-0.005247,-0.240961
1996000,-0.095768,-1.333570,8.736442,-0.233133,-2.127385,-0.454701
