time_us,ax,ay,az,gx,gy,gz
0,1.252167,0.263362,8.614338,-0.614812,3.261928,1.896444
4000,1.288081,0.251391,8.602366,-0.370538,3.429867,1.774307
8000,1.295263,0.275333,8.525752,-0.843820,2.910783,2.049116
12000,1.333570,0.260968,8.568848,-1.301835,2.239028,1.499497
16000,1.371878,0.308852,8.475474,-1.408705,1.750478,1.285757
20000,1.436521,0.335188,8.549694,-1.576644,1.338264,1.209421
24000,1.434127,0.335188,8.501810,-1.759850,0.620707,0.919345
28000,1.417367,0.311246,8.602366,-1.836186,0.223760,0.491864
32000,1.369483,0.287304,8.604761,-1.866720,-0.081583,0.552933
36000,1.316811,0.282516,8.659827,-2.019392,-0.539598,0.461329
40000,1.290475,0.208296,8.614338,-2.034660,-0.509064,0.262856
44000,1.309628,0.220267,8.568848,-2.340003,-0.493797,0.446062
48000,1.235408,0.208296,8.568848,-2.584278,-0.432728,0.125452
52000,1.120486,0.189142,8.552089,-2.813286,-0.417461,0.507131
56000,1.192312,0.158017,8.585608,-3.011759,-0.875476,0.415528
60000,1.185130,0.143652,8.669404,-3.164430,-0.722805,0.705604
64000,1.285686,0.050278,8.765172,-3.256034,-0.417461,1.102551
68000,1.355118,0.098162,8.822633,-3.011759,0.116890,1.072016
72000,1.323994,0.050278,8.851364,-2.141530,0.910783,1.407894
76000,1.369483,0.067038,8.846576,-1.393438,1.246661,1.285757
80000,1.438915,0.100556,8.920795,-1.118629,1.139791,1.072016
84000,1.455675,0.114922,9.028535,-0.553744,0.926050,0.995681
88000,1.515530,0.100556,9.083601,0.270684,1.048188,0.781940
92000,1.544260,0.143652,8.947132,1.018775,0.284829,0.537665
96000,1.575385,0.213084,8.810662,1.430989,-0.188453,0.354459
100000,1.663970,0.251391,8.712500,1.766867,0.086356,0.033849
104000,1.630451,0.189142,8.578424,1.568394,-0.081583,-0.103556
108000,1.699883,0.275333,8.616732,1.125646,-0.829675,-0.363098
112000,1.709460,0.265756,8.628703,0.789768,-0.707537,-0.744777
116000,1.711854,0.282516,8.406042,-0.019392,-1.073950,-1.248594
120000,1.671153,0.205901,8.432379,-1.011759,-0.982347,-1.385999
124000,1.769315,0.272939,8.499416,-1.622446,-0.631201,-1.630274
128000,1.731008,0.256180,8.614338,-2.217866,-0.005247,-1.660808
132000,1.769315,0.318429,8.456321,-2.843820,0.422234,-1.905083
136000,1.625663,0.229843,8.554482,-3.027026,0.742844,-1.798213
140000,1.675941,0.270545,8.693346,-3.027026,1.032921,-1.676075
144000,1.685518,0.234632,8.671799,-3.027026,1.185592,-1.798213
148000,1.704672,0.280122,8.937555,-2.706415,1.597806,-1.798213
152000,1.754950,0.198719,8.923190,-2.340003,2.055821,-2.088289
156000,1.754950,0.179565,9.011775,-1.652980,1.704676,-2.378365
160000,1.807622,0.193930,8.882488,-1.042293,1.948951,-2.714243
164000,1.774103,0.177171,8.896853,-0.630080,1.674142,-2.927984
168000,1.869871,0.232238,8.777143,-0.233133,0.910783,-3.202793
172000,1.884237,0.277727,8.724471,0.118012,0.376432,-3.447068
176000,1.805228,0.258574,8.607155,0.469157,-0.020514,-3.721877
180000,1.924938,0.222661,8.602366,0.392821,-0.264789,-4.149358
184000,2.066196,0.241814,8.506598,0.041676,-0.264789,-4.760045
188000,2.197877,0.241814,8.487445,-0.110996,-0.356392,-5.370731
192000,2.106898,0.258574,8.470686,-0.248400,-0.707537,-5.966151
196000,2.128445,0.256180,8.463503,-0.782751,-1.440362,-6.576838
200000,2.193089,0.277727,8.568848,-1.378171,-1.135018,-6.912716
204000,2.267309,0.217872,8.544906,-1.668247,-0.692270,-7.553937
208000,2.276886,0.122104,8.664616,-1.576644,-0.554866,-8.240961
212000,2.181118,0.129287,8.688558,-1.393438,-0.386927,-8.683709
216000,2.164358,0.043096,8.631097,-1.194965,-0.631201,-8.989053
220000,2.047042,0.055067,8.614338,-1.362904,-0.600667,-9.111190
224000,2.121263,0.031125,8.599973,-1.194965,-0.554866,-9.279129
228000,2.126051,0.043096,8.628703,-1.332370,-0.570133,-9.401266
232000,2.188300,0.071826,8.640674,-1.362904,-0.478530,-9.431801
236000,2.269703,0.043096,8.667010,-1.607178,-0.264789,-9.645541
240000,2.233790,0.011971,8.599973,-1.744583,0.284829,-9.844014
244000,2.348712,0.055067,8.580819,-1.729316,0.162692,-10.011953
248000,2.437297,0.110133,8.590396,-1.820919,0.483302,-10.240961
252000,2.430115,0.107739,8.475474,-1.668247,0.361165,-10.851648
256000,2.576161,0.067038,8.437167,-1.591912,-0.295324,-11.095922
260000,2.549825,0.146046,8.451532,-1.652980,-0.615934,-11.584473
264000,2.640805,0.119710,8.480263,-1.714049,-0.768606,-11.935617
268000,2.705448,0.169988,8.511387,-2.080461,-1.012881,-12.317297
272000,2.844312,0.093374,8.559271,-2.080461,-1.165553,-12.851648
276000,2.820370,0.095768,8.516175,-1.790385,-1.196087,-13.187526
280000,2.999935,0.122104,8.331821,-2.004125,-1.577766,-13.584473
284000,3.232172,0.102951,8.374918,-2.645346,-1.455629,-14.134090
288000,3.476381,0.074220,8.418014,-2.752217,-0.921278,-15.156992
292000,3.485958,0.045490,8.573636,-2.645346,-0.646469,-16.347830
296000,3.612850,0.031125,8.482656,-2.569010,-1.119751,-17.950884
300000,3.713407,0.011971,8.382100,-2.446873,-1.180820,-19.477602
304000,3.806781,0.047884,8.437167,-2.553744,-1.470896,-20.592106
308000,3.811569,-0.014365,8.458714,-2.156797,-1.669369,-21.905083
312000,4.046201,-0.062249,8.475474,-2.019392,-2.157919,-23.737143
316000,4.266468,-0.117316,8.645462,-1.530843,-3.715171,-25.981419
320000,4.386178,-0.160412,8.659827,-0.538476,-5.211354,-28.637907
324000,4.596867,-0.167594,8.674192,0.285951,-6.325858,-31.172258
328000,4.714183,-0.237026,8.693346,0.927172,-6.982347,-34.302029
332000,4.833893,-0.268151,8.576031,1.690531,-7.425095,-37.050121
336000,4.903325,-0.275333,8.422802,1.827936,-8.493797,-40.302029
340000,5.020641,-0.387861,8.444349,1.492058,-8.539598,-43.584473
344000,4.888960,-0.464475,8.446744,0.805035,-8.554866,-46.378365
348000,4.888960,-0.567426,8.355764,0.637096,-8.325858,-48.668442
352000,4.802769,-0.557849,8.161834,-0.095728,-7.654102,-50.424168
356000,4.905719,-0.696713,8.252813,-1.286568,-6.585400,-52.454700
360000,5.085284,-0.706290,8.415619,-2.416339,-4.371659,-54.408897
364000,5.058948,-0.713472,8.516175,-2.630080,-2.646469,-56.683708
368000,5.267244,-0.675165,8.607155,-2.523209,-0.936545,-59.050121
372000,5.607220,-0.670376,8.504205,-2.263667,2.345898,-61.660809
376000,5.978322,-0.639252,8.480263,-1.637713,4.468035,-65.370728
380000,6.208165,-0.557849,8.599973,-0.859087,6.193226,-69.676071
384000,6.339846,-0.557849,8.547300,-0.294202,7.658875,-74.042488
388000,6.399701,-0.481235,8.437167,-0.004125,8.010019,-79.004318
392000,6.325481,-0.478840,8.398860,0.469157,7.368799,-83.279129
396000,6.227319,-0.457293,8.372523,0.942440,6.773379,-87.553940
400000,5.887342,-0.371101,8.061277,0.820302,6.086356,-91.233330
404000,5.444415,-0.366313,7.778761,0.072211,5.567272,-94.469971
408000,5.020641,-0.411803,7.577648,-1.042293,4.803913,-96.164627
412000,4.642357,-0.371101,7.314286,-1.805652,4.223761,-97.065384
416000,4.505888,-0.234632,6.983886,-3.729316,3.689409,-96.866913
420000,4.548983,-0.136469,7.031770,-6.248401,4.162692,-97.050117
424000,4.407725,-0.069432,6.928820,-7.378171,4.727577,-97.340195
428000,4.185065,-0.038307,6.952762,-8.935423,6.376432,-98.408897
432000,3.988740,0.009577,6.722919,-11.149163,7.261929,-97.462334
436000,3.902549,-0.062249,6.928820,-13.423972,9.231394,-96.943253
440000,3.782839,-0.124498,7.082048,-15.698781,11.139791,-96.485237
444000,3.672705,-0.198719,7.311892,-17.027025,12.025287,-96.256226
448000,3.612850,-0.205901,7.594408,-18.110994,12.956584,-96.378365
452000,3.426103,-0.323217,7.694964,-19.393438,13.399332,-95.950882
456000,3.253720,-0.339977,7.927202,-19.851452,12.819180,-94.225693
460000,2.966416,-0.610521,8.465898,-17.027025,8.864982,-92.653175
464000,3.787627,-0.452504,8.226477,-16.462139,10.529103,-93.279129
468000,3.979163,-0.363919,7.996634,-19.866720,14.498569,-94.576836
472000,3.955221,-0.562637,8.327033,-22.095728,14.330630,-95.737144
476000,3.991134,-0.739808,8.930372,-21.546110,13.674142,-96.973785
480000,4.086902,-0.725443,9.490616,-19.149162,13.078722,-97.416534
484000,4.197036,-0.866701,9.658210,-16.675880,11.628340,-98.363098
488000,4.118027,-0.936133,9.646238,-13.881988,11.246661,-99.782944
492000,4.003105,-1.067814,9.816227,-11.866721,13.521470,-100.851646
496000,3.847482,-1.161188,9.871294,-10.065194,15.216126,-100.836380
500000,3.799598,-1.307234,9.945514,-7.729317,14.666508,-101.294395
504000,3.744531,-1.367089,9.835381,-5.759851,13.338264,-101.447067
508000,3.782839,-1.328782,10.050858,-4.401072,12.193226,-102.073021
512000,3.902549,-1.345541,9.976639,-2.981224,12.116890,-102.729507
516000,4.256891,-1.288081,9.921572,-1.439240,13.979486,-103.981415
520000,4.477157,-1.276109,9.739613,0.652363,15.292462,-106.027222
524000,4.594473,-1.292869,9.423578,2.545493,15.918417,-108.729507
528000,4.417302,-1.280898,9.064447,3.797401,15.964218,-111.172256
532000,4.209007,-1.300052,8.731653,3.492058,15.643608,-113.645538
536000,3.931279,-1.297657,8.413225,2.179081,15.338264,-115.263863
540000,3.706224,-1.333570,8.398860,1.430989,12.635974,-116.866913
544000,3.543418,-1.371878,8.401254,1.278317,11.582539,-117.996689
548000,3.452439,-1.292869,8.192958,0.301218,11.414599,-118.943253
552000,3.234566,-1.276109,7.929596,-1.317102,10.880248,-119.950882
556000,3.105280,-1.309628,7.900866,-2.981224,11.490935,-119.935616
560000,2.973598,-1.201889,7.740454,-5.210233,12.162691,-120.393631
564000,2.944868,-1.230620,7.773973,-7.485042,12.116890,-120.500504
568000,2.997540,-1.182736,7.931990,-9.133897,13.200859,-121.095924
572000,2.964022,-1.233014,7.934384,-10.538477,14.895515,-121.279129
576000,3.045424,-1.211466,7.841011,-11.759851,19.063456,-121.172256
580000,3.009511,-1.240196,7.948750,-13.744584,20.651241,-121.584473
584000,3.375824,-1.300052,8.248025,-15.423972,23.078722,-122.408897
588000,3.509900,-1.225831,8.152257,-15.515576,25.170324,-124.164627
592000,3.555390,-1.278504,8.276755,-16.080460,25.842081,-126.240959
596000,3.452439,-1.405396,8.418014,-15.881988,25.261929,-128.454712
600000,3.435679,-1.575385,8.540117,-15.408706,24.788645,-130.576843
604000,3.227384,-1.656788,8.595184,-14.904889,23.872616,-132.805847
608000,3.031059,-1.898602,8.731653,-14.660613,22.758112,-134.439438
612000,2.695871,-1.999158,8.736442,-14.126264,20.849714,-135.721878
616000,2.394202,-2.128445,8.700529,-13.485042,17.796280,-136.347824
620000,2.209848,-2.245761,8.822633,-13.530843,16.071089,-136.378372
624000,2.114080,-2.363077,8.939949,-13.271300,14.269562,-136.637909
628000,2.116474,-2.432509,8.844181,-13.286569,13.521470,-136.714249
632000,2.109292,-2.494758,8.889671,-13.179698,13.353531,-136.836380
636000,2.296039,-2.494758,8.899248,-12.752217,14.834447,-137.340195
640000,2.401384,-2.516306,8.899248,-12.019393,17.032921,-138.256226
644000,2.458845,-2.461239,8.877700,-11.668247,19.414600,-139.355469
648000,2.458845,-2.516306,8.693346,-11.332370,21.155058,-141.538666
652000,2.288857,-2.559402,8.413225,-10.981225,21.842081,-143.431793
656000,2.054225,-2.683900,8.413225,-10.828553,21.857347,-145.721878
660000,1.898602,-2.698265,8.135497,-11.072827,20.635973,-147.523407
664000,1.611298,-2.808398,8.137892,-12.645347,20.101622,-148.973785
668000,1.431733,-2.856283,8.264784,-13.607179,18.330629,-150.302032
672000,1.149217,-2.992752,8.245630,-13.943057,16.269562,-150.805847
676000,0.972046,-3.033453,8.082825,-14.049928,14.177958,-151.492874
680000,0.706290,-3.062184,7.970297,-15.027026,11.872615,-151.782944
684000,0.481235,-3.184288,7.800309,-16.614811,11.490935,-151.172256
688000,0.287304,-3.294421,7.771579,-18.309467,10.926050,-150.393631
692000,0.227449,-3.320758,7.603985,-20.141529,11.093989,-149.416534
696000,0.533907,-3.347094,7.709330,-22.340002,12.162691,-148.729507
700000,0.665588,-3.457227,7.852982,-24.370537,13.231394,-148.805847
704000,0.754174,-3.519476,7.994239,-25.240767,14.071088,-149.141724
708000,0.689530,-3.548207,8.171411,-25.576643,15.414599,-149.218063
712000,0.794875,-3.689465,8.396465,-25.652979,16.742844,-149.156998
716000,0.969652,-3.620033,8.528147,-25.637712,19.674141,-149.523407
720000,1.139640,-3.703830,8.597578,-26.263666,23.567272,-150.210419
724000,0.794875,-3.720589,8.245630,-26.095728,25.994753,-151.401260
728000,0.730232,-3.813963,8.161834,-27.439240,25.170324,-152.653168
732000,0.679953,-3.794810,8.619126,-27.897255,25.826813,-153.141724
736000,0.454898,-3.847482,8.923190,-27.500307,26.574905,-153.828751
740000,0.181959,-3.955221,8.846576,-27.133896,27.781012,-154.210419
744000,0.035913,-3.976769,8.602366,-27.179697,29.567272,-154.637909
748000,-0.033519,-4.022259,8.470686,-27.408705,32.559639,-155.095917
752000,-0.210690,-4.098873,8.422802,-27.439240,35.719944,-155.218063
756000,-0.608127,-4.129998,8.159439,-27.759850,37.185593,-154.805847
760000,-0.780510,-4.129998,8.257602,-27.240767,35.658875,-154.836380
764000,-0.842759,-4.168305,8.245630,-26.278934,35.475670,-154.546310
768000,-1.022324,-4.146757,8.159439,-25.210232,34.422234,-154.302032
772000,-1.264138,-4.094085,8.161834,-24.843819,33.216125,-154.302032
776000,-1.505953,-4.173094,8.188169,-24.034658,32.010021,-153.905075
780000,-1.728614,-4.185065,8.283937,-23.194963,30.254293,-153.538666
784000,-2.044648,-4.230555,7.996634,-22.401072,28.788645,-152.729507
788000,-2.477999,-4.304775,7.903260,-21.912521,24.605440,-151.569199
792000,-2.770091,-4.316746,7.702147,-20.996490,19.322996,-150.011948
796000,-3.083732,-4.376601,7.529764,-20.477407,14.574905,-147.599731
800000,-3.265691,-4.268862,7.410054,-20.370537,10.040554,-145.508133
804000,-3.505111,-4.220978,7.378930,-21.133896,6.223761,-143.584473
808000,-3.809175,-4.180276,7.331046,-21.744583,2.971852,-141.050125
812000,-3.888184,-4.199430,7.290344,-22.813284,-0.112117,-138.179886
816000,-4.024653,-4.132392,7.213730,-24.843819,-2.096850,-135.416534
820000,-4.232949,-4.139575,7.335834,-26.110994,-4.051049,-132.378372
824000,-4.211401,-4.137180,7.647080,-28.294201,-6.509064,-129.492874
828000,-4.271256,-4.036624,7.876924,-30.202599,-7.211354,-126.866913
832000,-4.280833,-3.976769,8.240842,-31.118629,-5.196087,-122.698975
836000,-3.976769,-3.976769,8.626308,-30.706413,-5.379293,-119.615005
840000,-3.464410,-3.931279,9.251195,-29.881989,-2.417461,-117.813477
844000,-3.339911,-3.883395,9.591172,-28.401070,2.132157,-116.103554
848000,-3.509900,-3.852271,9.662998,-27.011759,5.399333,-115.111191
852000,-3.881001,-3.871424,9.576807,-24.996490,6.452768,-113.187523
856000,-4.314352,-3.931279,9.502586,-22.294201,6.452768,-111.004318
860000,-4.623203,-3.928885,9.497798,-20.034658,5.109257,-108.027222
864000,-4.903325,-3.969586,9.579201,-17.347635,3.597806,-104.515770
868000,-5.269638,-3.900155,9.380483,-14.767484,1.643608,-100.378365
872000,-5.662287,-3.909731,9.253590,-12.110995,-2.661736,-95.538673
876000,-5.887342,-3.828329,8.937555,-10.523210,-7.684637,-90.989052
880000,-5.695806,-3.754108,8.789114,-8.248401,-11.547233,-86.317299
884000,-5.075707,-3.450045,9.074024,-9.103362,-15.165553,-82.805847
888000,-4.884171,-3.256114,9.244013,-9.561378,-18.249523,-79.523399
892000,-4.707001,-3.157952,9.052477,-10.828553,-18.906012,-75.920349
896000,-4.271256,-3.033453,8.846576,-11.500309,-17.196087,-73.324928
900000,-3.943250,-2.820370,8.712500,-12.553744,-15.211354,-71.416534
904000,-3.785233,-2.681506,8.681376,-14.278935,-11.455629,-69.355461
908000,-3.778050,-2.607286,8.535329,-16.401072,-6.157919,-67.431801
912000,-3.754108,-2.492364,8.647857,-18.813284,-1.241889,-65.156990
916000,-3.782839,-2.341529,8.485051,-21.240767,1.521470,-63.233326
920000,-3.816358,-2.377442,8.750807,-22.996490,4.834447,-61.126457
924000,-3.900155,-2.394202,9.045294,-24.843819,6.468035,-59.492870
928000,-3.756502,-2.408567,9.507375,-25.500307,8.605439,-57.462334
932000,-3.761291,-2.470816,9.720459,-25.866720,11.536737,-55.706608
936000,-4.015076,-2.406173,9.665392,-24.798018,12.055821,-53.553936
940000,-4.108450,-2.315193,9.758766,-23.500307,10.681775,-51.691341
944000,-3.919308,-2.298434,10.139444,-22.034658,9.811546,-49.401264
948000,-3.801992,-2.207454,10.393229,-19.729315,7.750478,-47.340199
952000,-3.270479,-2.123657,10.656591,-16.843819,6.086356,-45.782944
956000,-2.908955,-2.099715,10.984597,-13.454507,6.635974,-44.912716
960000,-2.839523,-2.025495,11.128249,-9.256034,5.811547,-44.668442
964000,-2.693477,-2.047042,10.970232,-5.149163,7.368799,-44.240959
968000,-2.585738,-1.905785,10.805033,-2.599545,8.712310,-44.347832
972000,-2.789245,-1.980005,10.546458,-0.645346,8.681775,-44.393631
976000,-2.971204,-1.994370,10.304645,1.034043,8.651241,-43.462334
980000,-3.136404,-1.975216,10.414778,2.881371,8.193226,-41.966152
984000,-3.019088,-1.845930,10.321404,4.911905,8.040554,-40.302029
988000,-2.973598,-1.860295,10.192117,7.690531,8.284829,-39.233326
992000,-2.983175,-1.848324,9.916783,9.583661,9.658875,-37.569202
996000,-3.306392,-1.853112,9.548077,12.377554,8.040554,-35.798210
1000000,-2.786851,-1.707066,9.478644,12.759233,10.864982,-34.057755
1004000,-2.944868,-1.692701,9.040505,12.957706,8.468035,-33.340199
1008000,-3.248932,-1.735796,8.736442,11.659997,9.032920,-31.447067
1012000,-3.315969,-1.675941,8.305486,9.492058,7.414600,-29.355463
1016000,-3.320758,-1.697489,7.879318,8.362287,5.765745,-27.004318
1020000,-3.191471,-1.704672,7.654263,6.728699,4.773379,-24.622639
1024000,-3.177106,-1.716643,7.472303,4.255417,5.368799,-22.332563
1028000,-2.942474,-1.656788,7.546524,1.766867,7.429867,-20.011953
1032000,-2.612074,-1.611298,7.661446,-1.439240,8.315363,-18.302029
1036000,-2.322376,-1.561020,7.694964,-4.569011,9.032920,-17.569204
1040000,-2.102109,-1.632846,7.824251,-7.714049,10.147424,-17.248594
1044000,-2.377442,-1.714248,7.706935,-9.729317,10.010019,-16.637907
1048000,-2.406173,-1.714248,7.893683,-11.332370,9.872615,-15.859282
1052000,-2.743755,-1.728614,7.987057,-12.385804,8.361164,-14.439434
1056000,-2.607286,-1.766921,8.367735,-12.828553,8.254294,-12.607373
1060000,-2.542642,-1.733402,8.592790,-12.004126,6.895516,-11.385999
1064000,-2.224213,-1.711854,8.932767,-10.889622,5.155058,-10.515770
1068000,-2.094927,-1.604115,9.277532,-9.530843,4.025287,-10.011953
1072000,-2.111686,-1.601721,9.514558,-6.981225,3.948951,-8.805846
1076000,-2.214637,-1.663970,9.725247,-4.523210,1.979486,-7.859281
1080000,-2.128445,-1.637634,9.844957,-2.217866,2.025287,-6.210426
1084000,-2.149993,-1.618480,9.993398,0.911905,2.681776,-4.561571
1088000,-2.051831,-1.558625,10.060435,4.179081,2.300096,-2.729510
1092000,-1.889025,-1.525106,10.139444,8.026409,2.513837,-0.531037
1096000,-1.663970,-1.496376,10.189722,12.331753,3.735211,1.530032
1100000,-1.230620,-1.383849,9.914390,15.583661,5.552005,2.247589
1104000,-0.763750,-1.304840,9.677363,17.369921,7.781012,1.881177
1108000,-0.675165,-1.137246,9.512163,17.263050,10.132157,1.575833
1112000,-0.732626,-1.173159,9.442732,17.721066,10.635974,1.026215
1116000,-0.778116,-1.273715,9.267955,18.972975,10.315363,0.797207
1120000,-0.842759,-1.278504,9.054871,20.102745,9.857347,0.858276
1124000,-0.998382,-1.350330,8.547300,20.285952,7.750478,1.316291
1128000,-1.079785,-1.388637,8.015787,19.461523,5.506203,1.697971
1132000,-1.110910,-1.407791,7.852982,17.766867,3.368799,2.690337
1136000,-1.187524,-1.340753,7.620744,15.766867,0.300096,3.774307
1140000,-1.041478,-1.347936,7.503428,12.988241,-2.890743,4.659803
1144000,-0.758962,-1.285686,7.625533,9.934806,-4.829675,5.255223
1148000,-0.641646,-1.285686,7.726089,6.530226,-5.104484,5.774307
1152000,-0.442927,-1.326388,7.661446,3.629463,-4.524331,6.491864
1156000,-0.428562,-1.367089,7.860164,1.232516,-3.348759,6.705605
1160000,-0.339977,-1.458069,7.939173,-0.996492,-1.638835,7.285757
1164000,-0.349553,-1.316811,8.164227,-3.133896,-0.142652,8.079650
1168000,-0.167594,-1.352724,8.204929,-4.935423,1.414600,8.232322
1172000,0.028730,-1.218649,8.343793,-6.798018,2.681776,8.110184
1176000,0.112527,-1.261744,8.743625,-7.607179,4.422234,7.697971
1180000,0.148441,-1.249773,9.112331,-7.530843,5.719944,7.652170
1184000,0.095768,-1.312023,9.557653,-6.355270,5.353531,7.041482
1188000,0.284910,-1.297657,9.811439,-4.309469,5.948951,6.461329
1192000,0.318429,-1.340753,10.065224,-1.622446,6.712310,5.499497
1196000,0.220267,-1.434127,9.991004,1.369921,5.765745,4.614001
1200000,0.057461,-1.486799,9.976639,4.469157,4.071089,4.400261
1204000,-0.208296,-1.479617,9.876082,7.492058,1.384066,3.972780
1208000,-0.294487,-1.498770,9.701305,9.919538,-0.570133,4.171253
1212000,-0.165200,-1.529895,9.576807,12.087478,-2.081583,4.522398
1216000,-0.117316,-1.379060,9.394848,14.514958,-4.295324,4.446063
1220000,-0.090980,-1.388637,8.971074,16.469158,-6.157919,4.827742
1224000,-0.059855,-1.283292,8.669404,16.667631,-8.127385,4.934612
1228000,0.150835,-1.130063,8.370130,15.782134,-8.066316,5.178887
1232000,0.270545,-1.010353,8.159439,14.408089,-7.898377,5.362093
1236000,0.409408,-0.869095,8.066066,12.163814,-7.058682,5.682703
1240000,0.572214,-0.811634,7.927202,9.522593,-5.776239,5.835375
1244000,0.584185,-0.689530,7.869741,7.293585,-4.234255,5.774307
1248000,0.500388,-0.577003,7.800309,4.911905,-2.035782,5.850643
1252000,0.739808,-0.497994,7.814674,2.408089,-0.020514,6.155986
1256000,0.792481,-0.450110,8.092402,0.499691,2.712310,6.064383
1260000,0.895431,-0.392649,7.910442,-1.423972,5.964219,5.560566
1264000,1.039083,-0.277727,8.001422,-3.011759,8.544371,4.980413
1268000,0.914585,-0.330400,7.951144,-4.401072,11.170325,4.461329
1272000,0.749385,-0.450110,7.987057,-4.401072,10.208493,3.942245
1276000,0.720655,-0.430956,8.056489,-4.492675,7.872615,3.194154
1280000,0.663194,-0.464475,8.370130,-4.462141,6.559639,2.675070
1284000,0.615310,-0.509965,8.614338,-3.576644,5.124524,2.110184
1288000,0.689530,-0.569820,8.714894,-2.355270,3.750478,1.560566
1292000,0.737414,-0.656011,8.853758,-0.950690,2.361165,0.858276
1296000,0.723049,-0.713472,8.877700,0.866104,0.895516,-0.210426
1300000,0.418985,-0.811634,8.810662,2.576027,-1.302957,-0.408900
1304000,0.237026,-0.912191,8.757990,4.255417,-4.325858,-0.256228
1308000,0.339977,-0.931344,8.743625,5.201982,-5.684637,-0.164625
1312000,0.387861,-0.964863,8.743625,5.995875,-6.402194,0.201787
1316000,0.435745,-1.039083,8.662222,6.560760,-6.921278,0.339192
1320000,0.483629,-1.072602,8.851364,6.789768,-6.341125,0.537665
1324000,0.780510,-1.165976,9.129091,7.537859,-4.493797,0.598734
1328000,0.735020,-1.268927,9.220071,8.866104,-2.005247,0.522398
1332000,0.634463,-1.331176,9.030929,9.415722,-0.478530,0.400261
1336000,0.478840,-1.321599,8.791509,9.476790,0.834447,0.217055
1340000,0.268151,-1.434127,8.755595,9.339386,1.674142,0.888810
1344000,0.174777,-1.486799,8.511387,8.606562,1.353531,1.575833
1348000,0.153229,-1.424550,8.350976,7.492058,0.727577,2.384994
1352000,0.306458,-1.307234,8.406042,5.812669,-0.463263,2.476597
1356000,0.306458,-1.364695,8.377312,4.621829,-1.226621,3.010948
1360000,0.313640,-1.343147,8.370130,3.614195,-2.020514,3.255223
1364000,0.339977,-1.383849,8.279149,2.652363,-2.631201,3.453696
1368000,0.354342,-1.295263,8.583213,1.461524,-3.211354,2.949879
1372000,0.677559,-1.194707,8.695741,-0.034660,-2.249522,2.552932
1376000,0.459687,-1.177947,8.595184,-0.523209,-2.096850,2.491864
1380000,0.404620,-1.170765,8.437167,-0.965957,-3.348759,1.972780
1384000,0.440533,-1.168370,8.532935,-1.561377,-3.898377,1.820108
1388000,0.349553,-1.156399,8.580819,-1.897255,-4.692270,1.652169
1392000,0.397437,-1.089362,8.820239,-2.049927,-5.180820,1.514765
1396000,0.414197,-1.101333,9.107543,-1.530843,-4.707537,1.438429
1400000,0.476446,-1.089362,9.018958,-0.462140,-4.051049,1.316291
1404000,0.330400,-1.041478,9.078813,1.110379,-4.127385,0.995681
1408000,0.229843,-1.036689,8.796297,1.965340,-3.944179,1.026215
1412000,0.234632,-0.945710,8.808268,2.453890,-4.035782,1.346826
1416000,0.129287,-0.893037,8.664616,2.637096,-4.341125,1.820108
1420000,0.102951,-0.873884,8.609550,2.133279,-4.722805,2.659803
1424000,0.323217,-0.814029,8.635885,2.179081,-5.028148,2.904078
1428000,0.488417,-0.785298,8.549694,2.255417,-3.898377,3.362093
1432000,0.751779,-0.641646,8.487445,1.995875,-2.967079,2.888810
1436000,0.893037,-0.646434,8.238448,1.598928,-1.516698,2.369726
1440000,0.950498,-0.675165,8.164227,0.576027,-0.875476,2.201787
1444000,0.890643,-0.694318,8.298303,-0.462140,-0.447995,1.423162
1448000,0.823605,-0.689530,8.269572,-0.904888,-0.982347,1.148352
1452000,0.730232,-0.682347,8.374918,-1.485041,-2.524331,0.736139
1456000,0.579397,-0.742203,8.283937,-1.469774,-3.211354,0.873543
1460000,0.577003,-0.849942,8.523358,-1.851454,-5.455629,0.171253
1464000,0.885855,-0.785298,8.834604,-1.759850,-6.066316,-0.469968
1468000,0.897826,-0.818817,9.006987,-1.286568,-3.333492,-0.469968
1472000,0.814029,-0.835576,8.918402,-0.874354,-3.211354,-1.248594
1476000,0.706290,-0.852336,8.884883,-1.225499,-2.264789,-1.706609
1480000,0.560243,-0.885855,8.817844,-1.576644,-1.089217,-1.462335
1484000,0.569820,-0.981623,8.932767,-1.790385,-0.341125,-1.569205
1488000,0.524330,-1.012747,8.999804,-1.652980,0.498570,-1.828747
1492000,0.517148,-1.055843,8.978256,-0.813286,1.292463,-1.844014
1496000,0.505177,-1.070208,9.002198,0.011142,1.796279,-1.950884
1500000,0.519542,-1.137246,8.889671,0.377554,3.277195,-2.027220
1504000,0.409408,-1.165976,8.956709,0.576027,3.490936,-2.302029
1508000,0.122104,-1.309628,8.913613,1.140913,3.048188,-2.179892
1512000,0.052672,-1.285686,8.827422,0.881371,0.834447,-1.859281
1516000,-0.064643,-1.280898,8.777143,0.698165,-1.058682,-1.462335
1520000,0.059855,-1.209072,8.829816,0.499691,-2.096850,-0.897449
1524000,0.074220,-1.223437,8.832211,0.469157,-2.677003,-0.454701
1528000,0.069432,-1.206678,8.791509,0.637096,-2.783873,-0.240961
1532000,0.057461,-1.221043,8.736442,0.743966,-2.707537,-0.042487
1536000,0.035913,-1.130063,8.700529,0.530226,-2.417461,0.461329
1540000,-0.031125,-1.137246,8.520964,-0.263667,-0.967079,1.010948
1544000,-0.244209,-1.101333,8.535329,-1.057560,0.681776,1.926978
1548000,-0.227449,-1.039083,8.384495,-1.943056,1.628341,2.949879
1552000,0.275333,-0.919373,8.465898,-2.920156,3.689409,3.804841
1556000,0.325611,-0.945710,8.530540,-3.897255,5.536737,3.453696
1560000,0.493206,-0.912191,8.568848,-3.881988,7.170325,3.041482
1564000,0.627281,-0.916979,8.508993,-3.286568,8.666508,2.369726
1568000,0.572214,-0.912191,8.312668,-3.561377,8.437500,1.010948
1572000,0.495600,-1.007959,8.408437,-3.515576,6.544371,0.110184
1576000,0.452504,-1.000776,8.667010,-3.271301,4.025287,-0.958518
1580000,0.560243,-1.053449,9.040505,-1.958324,1.384066,-1.828747
1584000,0.560243,-1.091756,9.349358,-0.080461,-1.226621,-2.775312
1588000,0.299275,-1.201889,9.358934,1.812669,-2.875476,-3.218060
1592000,0.079009,-1.122881,9.162610,3.079844,-4.066316,-3.355464
1596000,-0.105345,-1.165976,9.071630,3.812669,-5.257155,-2.821113
1600000,-0.246603,-1.261744,9.035717,4.484425,-5.822041,-2.424167
1604000,-0.296881,-1.170765,8.973468,4.163814,-5.760972,-1.263861
1608000,0.000000,-1.204283,8.832211,3.751600,-5.089217,-0.576838
1612000,0.186748,-1.142034,8.801085,3.721066,-2.631201,0.003314
1616000,0.229843,-1.134852,8.640674,3.247783,-0.234255,0.003314
1620000,0.289698,-1.149217,8.530540,2.988241,1.719944,0.018581
1624000,0.110133,-1.142034,8.516175,2.224883,3.872615,0.461329
1628000,-0.021548,-1.134852,8.334216,1.324119,5.032921,0.980413
1632000,-0.160412,-1.134852,8.255207,-0.385804,5.032921,1.636902
1636000,-0.098162,-1.168370,8.305486,-1.851454,4.315363,2.217055
1640000,0.071826,-1.151611,8.432379,-3.042293,3.704677,2.033848
1644000,0.177171,-1.139640,8.468291,-3.836186,2.208493,1.774307
1648000,0.105345,-1.223437,8.549694,-4.340003,0.895516,1.377360
1652000,0.055067,-1.266533,8.690952,-3.943056,-1.211354,1.148352
1656000,0.045490,-1.333570,8.913613,-3.271301,-3.715171,0.598734
1660000,0.033519,-1.321599,8.975863,-2.584278,-2.753339,0.766673
1664000,-0.201113,-1.266533,9.038112,-1.927789,-2.967079,0.934612
1668000,0.126893,-1.233014,9.105149,-1.149163,-2.127385,1.178887
1672000,0.253785,-1.177947,9.220071,-0.172064,-1.135018,0.446062
1676000,0.189142,-1.240196,9.272743,0.789768,-0.203721,0.186520
1680000,0.016759,-1.249773,8.944737,2.087478,1.506203,0.339192
1684000,-0.050278,-1.223437,8.786720,2.957707,2.254295,0.308658
1688000,-0.160412,-1.194707,8.640674,3.293585,1.979486,0.690337
1692000,-0.098162,-1.204283,8.631097,3.797401,1.781012,0.766673
1696000,-0.102951,-1.182736,8.540117,3.950073,0.177959,0.705604
1700000,-0.124498,-1.151611,8.513782,3.827936,-1.776240,0.766673
1704000,-0.189142,-1.170765,8.540117,3.736333,-3.012881,0.659803
1708000,-0.205901,-1.221043,8.315063,3.171447,-3.470896,1.316291
1712000,-0.349553,-1.127669,8.238448,1.919539,-4.371659,1.804841
1716000,-0.435745,-1.161188,8.291121,0.560760,-4.753339,2.736139
1720000,-0.342371,-1.125275,8.310274,-1.042293,-4.509064,4.064383
1724000,-0.052672,-1.149217,8.279149,-2.401072,-2.722805,4.552933
1728000,0.220267,-1.118092,8.372523,-3.927789,-1.165553,4.705605
1732000,0.239420,-1.130063,8.461109,-4.691149,0.010020,4.797207
1736000,0.258574,-1.137246,8.588001,-4.920156,1.292463,4.720871
1740000,0.248997,-1.158794,8.652645,-5.042294,2.956585,4.980413
1744000,0.043096,-1.115698,8.712500,-4.721683,3.964219,4.919345
1748000,-0.040701,-1.058237,8.889671,-4.248401,4.406967,5.178887
1752000,0.071826,-1.082179,9.004593,-3.652980,4.468035,5.667437
1756000,0.093374,-1.005565,9.145850,-3.072828,4.269562,5.728505
1760000,0.100556,-0.998382,9.081207,-2.217866,3.872615,5.789574
1764000,-0.021548,-0.962469,8.920795,-1.530843,2.910783,5.697971
1768000,-0.031125,-0.995988,8.901642,-1.439240,2.025287,6.003314
1772000,-0.033519,-1.003170,8.681376,-1.286568,1.872615,6.400261
1776000,-0.055067,-0.907402,8.444349,-1.607178,1.658875,6.812475
1780000,-0.148441,-0.981623,8.489840,-1.149163,1.139791,7.484231
1784000,-0.062249,-0.957681,8.360553,-1.393438,0.803913,8.018581
1788000,0.112527,-0.916979,8.307879,-1.881988,1.658875,8.018581
1792000,-0.002394,-1.027112,8.331821,-1.759850,2.819180,8.400260
1796000,0.057461,-1.043872,8.370130,-1.790385,2.254295,8.262856
1800000,0.043096,-1.115698,8.468291,-2.095728,1.918417,8.278123
1804000,0.055067,-1.149217,8.669404,-2.217866,1.093989,8.186520
1808000,-0.114922,-1.230620,8.734048,-2.065194,0.132157,8.186520
1812000,-0.260968,-1.218649,8.717288,-1.759850,-0.631201,8.552932
1816000,-0.198719,-1.230620,8.829816,-1.729316,-1.379293,8.980413
1820000,-0.136469,-1.276109,8.801085,-1.179698,-1.150285,9.056749
1824000,-0.093374,-1.304840,8.734048,-0.798018,-1.150285,9.423162
1828000,-0.067038,-1.254562,8.738836,-0.660614,-1.104484,9.606367
1832000,-0.038307,-1.233014,8.865729,-0.080461,-1.104484,10.033848
1836000,0.122104,-1.321599,8.906430,0.591295,-1.272423,9.896443
1840000,0.177171,-1.261744,8.858546,1.354653,-1.425095,9.881176
1844000,0.124498,-1.345541,8.968679,2.209615,-1.241889,9.728504
1848000,0.148441,-1.407791,8.951921,3.369921,-1.028148,9.453695
1852000,-0.081403,-1.395820,8.822633,3.583661,-1.394560,9.926978
1856000,-0.239420,-1.381454,8.947132,3.461524,-1.394560,10.461329
1860000,-0.299275,-1.362301,9.064447,3.293585,-1.119751,11.392627
1864000,-0.438139,-1.362301,8.947132,2.805035,-0.921278,12.598734
1868000,-0.373495,-1.312023,8.856153,2.224883,0.544371,13.423162
1872000,-0.256180,-1.278504,8.832211,1.889004,1.658875,14.629268
1876000,-0.213084,-1.256956,8.724471,1.293585,3.460402,15.514764
1880000,-0.117316,-1.218649,8.611943,0.514959,6.208493,16.262857
1884000,0.011971,-1.173159,8.659827,-0.340003,8.239027,16.934612
1888000,0.181959,-1.122881,8.669404,-1.576644,10.086355,16.736139
1892000,0.304064,-1.146823,8.614338,-1.591912,11.521470,16.293390
1896000,0.325611,-1.127669,8.671799,-1.362904,11.826814,15.499497
1900000,0.129287,-1.048660,8.722076,-1.118629,10.880248,14.766672
1904000,0.050278,-1.108515,8.710106,-0.217866,9.032920,13.926978
1908000,-0.081403,-1.113304,8.760384,0.056943,6.803913,13.530031
1912000,-0.174777,-1.127669,8.774749,0.545493,4.483303,12.858275
1916000,-0.143652,-1.055843,8.755595,1.079844,1.689409,12.354459
1920000,-0.098162,-1.103727,8.784326,1.751600,-0.753339,12.186520
1924000,-0.117316,-1.065420,8.777143,2.667631,-2.570133,11.865910
1928000,-0.126893,-1.134852,8.700529,2.820302,-3.776240,11.453695
1932000,-0.193930,-1.142034,8.633492,2.774501,-4.478529,11.209421
1936000,-0.275333,-1.103727,8.568848,2.194348,-4.600667,11.636902
1940000,-0.301669,-1.130063,8.544906,1.583661,-3.272423,11.926978
1944000,-0.208296,-1.113304,8.640674,1.461524,-1.593034,12.522398
1948000,-0.143652,-1.101333,8.463503,1.858470,-0.035782,12.797207
1952000,-0.239420,-1.118092,8.312668,2.118012,1.139791,13.133085
1956000,-0.253785,-1.146823,8.279149,1.385188,2.132157,13.423162
1960000,-0.246603,-1.108515,8.281544,0.850837,2.193226,13.759039
1964000,-0.335188,-1.039083,8.382100,-0.569010,1.124524,13.957512
1968000,-0.332794,-1.079785,8.494628,-1.408705,0.544371,14.033848
1972000,-0.244209,-1.027112,8.614338,-2.034660,0.162692,14.201787
1976000,-0.270545,-1.015141,8.693346,-2.233133,0.330631,14.262856
1980000,-0.308852,-0.948104,8.724471,-2.904888,0.498570,14.323924
1984000,-0.430956,-1.015141,8.791509,-2.462140,1.093989,14.705604
1988000,-0.452504,-1.046266,8.710106,-2.217866,1.032921,15.728505
1992000,-0.557849,-1.098939,8.791509,-2.553744,0.834447,16.125452
1996000,-0.514753,-1.060631,8.944737,-2.462140,0.727577,16.766674
