time_us,ax,ay,az,gx,gy,gz
0,0.514753,-1.426944,8.784326,-0.782751,-1.211354,0.033849
4000,0.545878,-1.383849,8.755595,-0.385804,-0.906011,-0.210426
8000,0.533907,-1.412579,8.693346,0.072211,-1.073950,-0.179892
12000,0.493206,-1.352724,8.746018,0.316485,-0.982347,-0.195159
16000,0.462081,-1.376666,8.544906,0.377554,-1.333492,-0.363098
20000,0.428562,-1.386243,8.671799,0.835569,-2.112118,0.094917
24000,0.385466,-1.352724,8.688558,1.537859,-1.760972,0.262856
28000,0.476446,-1.312023,8.762778,1.705798,-1.318224,0.384994
32000,0.550666,-1.278504,8.631097,2.041676,-0.264789,0.568200
36000,0.536301,-1.304840,8.578424,1.934806,0.300096,0.522398
40000,0.574608,-1.283292,8.456321,1.873737,0.101623,0.491864
44000,0.512359,-1.278504,8.561666,1.736333,0.101623,0.201787
48000,0.500388,-1.278504,8.626308,2.041676,0.147424,0.308658
52000,0.483629,-1.233014,8.549694,2.331753,0.559638,0.812474
56000,0.411803,-1.297657,8.609550,2.194348,0.284829,0.720871
60000,0.495600,-1.338359,8.578424,2.560760,0.162692,0.644536
64000,0.459687,-1.355118,8.518570,2.530226,-0.188453,0.949879
68000,0.462081,-1.345541,8.631097,2.362287,-0.524331,0.629268
72000,0.426168,-1.395820,8.604761,2.331753,-0.371659,0.797207
76000,0.433351,-1.343147,8.585608,2.163814,-0.631201,0.659803
80000,0.368707,-1.431733,8.528147,1.812669,-0.860209,0.690337
84000,0.486023,-1.393425,8.518570,1.782134,-0.692270,1.041482
88000,0.402226,-1.388637,8.377312,1.140913,-0.570133,0.965146
92000,0.581791,-1.355118,8.343793,0.347020,-0.906011,0.797207
96000,0.579397,-1.338359,8.386889,-0.446873,-1.028148,0.827742
100000,0.574608,-1.391031,8.305486,-1.057560,-0.661736,0.675070
104000,0.641646,-1.350330,8.418014,-2.065194,-0.570133,0.659803
108000,0.677559,-1.323994,8.475474,-2.798018,0.391699,0.904078
112000,0.735020,-1.182736,8.362947,-5.714049,4.284829,2.155986
116000,0.725443,-1.498770,8.913613,-5.332370,1.689409,1.102551
120000,0.957681,-1.386243,9.102755,-2.538476,2.177959,1.392627
124000,1.010353,-1.316811,8.968679,-2.019392,1.429867,0.949879
128000,1.192312,-1.340753,8.939949,-1.973591,-0.677003,0.018581
132000,1.177947,-1.405396,8.978256,-1.225499,-1.226621,-0.805846
136000,1.098939,-1.381454,8.803479,-0.385804,-1.715171,-1.782945
140000,1.113304,-1.316811,8.865729,-0.538476,-2.936545,-2.500503
144000,1.034295,-1.388637,8.853758,-0.126262,-3.272423,-2.714243
148000,1.106121,-1.398214,8.930372,0.453890,-2.997614,-2.714243
152000,1.213860,-1.304840,8.669404,0.056943,-0.249522,-1.538671
156000,0.986411,-1.508347,8.911219,0.362287,-1.883110,-2.042487
160000,1.115698,-1.398214,8.817844,1.156180,-1.211354,-2.439434
164000,1.175553,-1.242591,8.702923,0.240150,-0.188453,-2.408900
168000,1.144428,-1.278504,8.789114,0.881371,-1.608301,-3.111190
172000,1.347936,-1.312023,8.827422,1.217249,-1.348759,-3.599739
176000,1.328782,-1.278504,8.789114,1.583661,-1.089217,-4.164625
180000,1.261744,-1.249773,8.760384,1.537859,-0.692270,-4.347831
184000,1.292869,-1.290475,8.588001,1.385188,-0.127385,-4.485235
188000,1.276109,-1.254562,8.580819,1.293585,0.895516,-4.698976
192000,1.230620,-1.170765,8.473080,0.866104,1.552005,-4.744777
196000,1.304840,-1.297657,8.396465,0.453890,2.055821,-5.034853
200000,1.383849,-1.206678,8.410830,0.362287,2.101623,-5.279129
204000,1.424550,-1.201889,8.396465,-0.004125,2.010020,-5.966151
208000,1.503559,-1.132457,8.458714,-0.141530,2.132157,-6.668441
212000,1.491588,-1.254562,8.537724,-0.309469,1.948951,-7.416533
216000,1.491588,-1.271321,8.681376,-0.416339,2.116890,-7.935617
220000,1.482011,-1.201889,8.781932,-0.752217,2.391699,-8.210426
224000,1.563414,-1.297657,8.789114,-0.996492,2.987119,-8.378366
228000,1.618480,-1.194707,8.853758,-1.332370,3.994753,-8.576838
232000,1.776498,-1.240196,9.009381,-1.515576,5.536737,-9.050121
236000,1.819593,-1.235408,9.014170,-1.286568,6.544371,-9.599740
240000,1.819593,-1.254562,9.090784,-0.813286,7.124524,-10.546305
244000,1.850718,-1.261744,9.129091,-0.385804,7.628340,-11.508137
248000,1.824382,-1.268927,8.973468,-0.217866,7.155058,-12.408900
252000,1.771709,-1.340753,9.021352,-0.065194,6.559639,-13.248594
256000,1.776498,-1.431733,9.035717,0.667630,6.574905,-14.011953
260000,1.771709,-1.484405,9.059659,1.263050,6.910783,-14.698977
264000,1.769315,-1.395820,8.937555,1.247783,6.803913,-15.340198
268000,1.742979,-1.412579,8.841787,1.461524,7.368799,-15.996686
272000,1.817199,-1.400608,8.923190,1.430989,8.315363,-16.531036
276000,1.821988,-1.460463,9.002198,1.201982,9.277195,-17.324930
280000,1.821988,-1.558625,8.999804,1.690531,10.345898,-17.935617
284000,1.757344,-1.489193,8.686164,2.301218,11.796279,-18.439434
288000,1.764527,-1.431733,8.568848,1.614195,12.742844,-19.233326
292000,1.680730,-1.501164,8.564059,1.049310,12.941318,-19.828747
296000,1.570596,-1.532289,8.554482,0.896638,13.781012,-19.599739
300000,1.549049,-1.546654,8.307879,0.728699,14.697042,-19.233326
304000,1.417367,-1.434127,8.224083,-0.401072,14.391699,-18.943251
308000,1.587356,-1.505953,8.255207,-1.164430,13.750478,-18.546303
312000,1.810017,-1.414973,8.497022,-1.347636,13.842080,-18.653173
316000,2.008735,-1.388637,8.401254,-1.408705,12.574905,-20.042486
320000,2.343924,-1.414973,8.611943,-1.500308,13.872615,-21.126455
324000,2.363077,-1.429338,8.686164,-0.736950,13.063455,-22.683708
328000,2.420538,-1.326388,8.568848,-0.782751,13.582539,-24.622639
332000,2.262521,-1.355118,8.559271,-1.561377,13.765745,-26.195158
336000,2.166753,-1.436521,8.731653,-1.607178,14.330630,-27.172258
340000,2.051831,-1.510741,8.995016,-1.179698,14.864982,-27.782946
344000,1.936909,-1.549049,8.971074,-0.401072,15.032920,-28.714243
348000,1.970428,-1.505953,8.813056,-0.095728,17.155058,-28.989052
352000,1.826776,-1.508347,8.583213,0.240150,17.735210,-29.615005
356000,1.769315,-1.455675,8.578424,0.362287,18.162691,-30.042486
360000,1.781286,-1.527501,8.580819,0.240150,17.414600,-30.805845
364000,1.735796,-1.537078,8.568848,0.652363,17.032921,-31.660807
368000,1.824382,-1.551443,8.571242,1.156180,18.452768,-32.195160
372000,1.908179,-1.505953,8.477868,1.430989,18.361164,-33.447067
376000,1.747767,-1.577779,8.571242,2.514959,17.216125,-34.363098
380000,1.948880,-1.510741,8.456321,2.224883,16.101622,-37.141724
384000,1.994370,-1.563414,8.252813,0.728699,17.368797,-38.729511
388000,1.680730,-1.807622,8.434772,2.667631,18.788645,-38.973785
392000,1.544260,-1.654393,8.312668,2.988241,15.093989,-40.088287
396000,1.654393,-1.800440,8.678981,3.232516,12.620707,-41.538670
400000,1.776498,-1.766921,8.599973,3.446256,13.842080,-42.088287
404000,1.747767,-1.829170,8.341399,2.988241,14.712310,-43.279129
408000,1.546654,-1.742979,8.293514,2.682898,14.468035,-44.515770
412000,1.266533,-1.831564,8.293514,2.301218,12.681775,-44.698975
416000,1.187524,-1.860295,8.370130,2.392821,12.452767,-44.531036
420000,1.302446,-1.731008,8.489840,1.705798,13.368798,-44.408897
424000,1.424550,-1.685518,8.422802,0.759233,14.345898,-44.500504
428000,1.522712,-1.704672,8.501810,0.179081,15.445134,-45.034855
432000,1.472434,-1.683124,8.506598,0.118012,16.147425,-46.088287
436000,1.496376,-1.618480,8.561666,0.408088,17.048187,-47.004318
440000,1.479617,-1.659182,8.485051,0.056943,17.063456,-48.103554
444000,1.431733,-1.663970,8.441956,-0.141530,17.353531,-49.156990
448000,1.290475,-1.613692,8.485051,-0.889621,18.177958,-49.172256
452000,1.393425,-1.630451,8.588001,-0.904888,19.124523,-49.553936
456000,1.601721,-1.683124,8.714894,-0.721682,19.521469,-50.302029
460000,1.666364,-1.628057,8.822633,-0.309469,20.483301,-51.599739
464000,1.685518,-1.668759,8.772355,-0.263667,21.063456,-53.584473
468000,1.707066,-1.630451,8.609550,-0.507942,21.979485,-54.897449
472000,1.604115,-1.649605,8.683769,-1.149163,23.536737,-56.286762
476000,1.642422,-1.719037,8.726865,-1.332370,25.643608,-56.897449
480000,1.539472,-1.709460,8.628703,-1.866720,25.521469,-58.302029
484000,1.594538,-1.683124,8.805874,-1.851454,27.307730,-59.584473
488000,1.443704,-1.740585,8.935161,-1.836186,25.429867,-61.156990
492000,1.429338,-1.865083,8.870518,-1.240766,24.300097,-62.775311
496000,1.285686,-1.977611,9.062054,-0.446873,24.605440,-63.447067
500000,0.943315,-2.001553,9.129091,-0.233133,22.895515,-64.393631
504000,0.533907,-2.142811,9.255983,0.194348,19.552004,-65.172256
508000,0.205901,-2.286463,9.459491,1.217249,18.071089,-64.347832
512000,-0.045490,-2.363077,9.452309,3.034043,17.674141,-62.363098
516000,-0.229843,-2.382231,9.528923,3.995875,17.811546,-59.447067
520000,-0.447716,-2.360683,9.605537,5.705799,17.216125,-56.790577
524000,-0.445322,-2.353500,9.521740,6.942440,16.864981,-54.042488
528000,-0.248997,-2.343924,9.461885,8.118012,17.445133,-51.416534
532000,-0.126893,-2.296039,9.459491,8.942440,18.910784,-49.431801
536000,0.074220,-2.188300,9.483433,9.843203,20.437500,-47.844013
540000,0.282516,-2.080561,9.258378,10.316485,21.613073,-46.622639
544000,0.627281,-2.023100,9.165004,10.896638,22.803913,-45.844013
548000,0.778116,-1.927332,9.138668,11.125646,24.758112,-45.966152
552000,0.964863,-1.884237,8.750807,10.820302,26.773378,-45.737144
556000,0.988805,-1.831564,8.595184,10.545493,26.712309,-46.698975
560000,1.007959,-1.814805,8.406042,10.102745,26.819180,-47.462334
564000,0.993594,-1.764527,8.317456,9.430989,27.719944,-48.515770
568000,0.962469,-1.764527,8.113950,9.049310,27.994753,-49.462334
572000,0.847547,-1.647211,7.951144,7.919539,27.155058,-50.592106
576000,0.648829,-1.678335,7.841011,7.140913,25.048187,-51.676075
580000,0.548272,-1.685518,7.752425,6.209615,24.010019,-52.103554
584000,0.423774,-1.661576,7.747637,5.446257,23.246660,-52.622639
588000,0.184354,-1.747767,7.800309,4.728699,22.406965,-52.714241
592000,0.107739,-1.769315,7.769185,3.751600,22.605440,-51.752411
596000,-0.064643,-1.819593,7.927202,3.308852,20.987120,-50.912716
600000,-0.021548,-1.802834,8.288726,3.889004,21.384066,-49.553936
604000,0.248997,-1.766921,8.418014,3.995875,22.208492,-49.004318
608000,0.495600,-1.702277,8.535329,3.766867,23.475668,-49.447067
612000,0.502782,-1.810017,8.798691,4.255417,25.277195,-50.011951
616000,0.344765,-1.836353,8.906430,5.873737,24.483301,-51.202793
620000,0.275333,-1.829170,8.868123,7.003509,22.452768,-52.011951
624000,0.184354,-1.855506,8.863335,7.614195,20.910784,-52.714241
628000,0.124498,-1.917756,8.602366,9.140913,20.269562,-53.462334
632000,0.002394,-1.900996,8.631097,9.186714,19.170324,-53.798210
636000,-0.174777,-1.965640,8.626308,8.576028,18.437500,-53.645538
640000,-0.143652,-2.123657,8.729259,8.866104,18.422234,-53.355465
644000,-0.028730,-2.109292,8.839393,9.705798,19.353531,-53.202793
648000,-0.316035,-2.114080,8.769960,10.240149,17.399332,-53.111191
652000,-0.011971,-2.073379,8.678981,10.805036,17.185593,-53.050121
656000,0.215478,-2.039860,8.734048,11.263050,18.635973,-53.553936
660000,0.387861,-1.953669,8.456321,11.583661,19.078722,-55.401264
664000,0.483629,-1.905785,8.655039,11.308852,19.536737,-57.584473
668000,0.562637,-1.958457,8.350976,12.591294,17.628340,-61.218060
672000,0.337582,-1.879448,8.362947,12.545493,15.674141,-64.393631
676000,0.169988,-2.015918,8.307879,12.362287,14.605439,-67.294395
680000,-0.088585,-2.066196,8.341399,12.133279,15.582539,-69.111191
684000,-0.308852,-2.015918,8.305486,11.751600,15.643608,-70.958519
688000,-0.512359,-2.070984,8.003817,10.087478,15.109256,-71.279129
692000,-0.778116,-2.169147,8.248025,9.247784,15.155058,-71.309662
696000,-1.063026,-2.329558,8.437167,8.133280,14.605439,-70.439430
700000,-1.335965,-2.262521,8.585608,7.751600,15.750477,-68.622643
704000,-1.280898,-2.288857,8.722076,6.942440,17.750477,-66.698975
708000,-1.283292,-2.267309,8.757990,6.682898,21.399332,-64.836380
712000,-1.292869,-2.126051,8.769960,4.240149,21.216125,-63.584473
716000,-1.053449,-2.185906,8.599973,3.507325,24.208492,-62.607372
720000,-1.106121,-2.126051,8.700529,2.911905,26.422234,-61.615005
724000,-0.888249,-2.193089,8.793902,2.423356,28.086355,-60.240959
728000,-0.679953,-2.233790,8.748413,1.995875,30.559637,-59.324928
732000,-0.486023,-2.195483,8.655039,1.492058,32.651241,-59.462334
736000,-0.351948,-2.298434,8.631097,1.232516,33.628342,-60.332561
740000,-0.368707,-2.346318,8.482656,1.003508,33.964218,-61.538670
744000,-0.339977,-2.334347,8.588001,1.201982,35.552006,-62.042488
748000,-0.210690,-2.375048,8.334216,1.125646,33.109257,-63.324928
752000,-0.016759,-2.377442,8.180987,0.545493,32.880249,-64.256226
756000,0.098162,-2.437297,8.032547,0.026409,31.307730,-66.592102
760000,0.179565,-2.432509,8.142680,-0.095728,29.384066,-69.553940
764000,0.232238,-2.458845,7.999028,0.606562,28.391699,-72.607368
768000,0.057461,-2.463634,7.970297,1.430989,26.330629,-75.889816
772000,0.035913,-2.396596,8.283937,2.438623,25.109257,-77.828743
776000,-0.150835,-2.413355,8.599973,4.728699,26.697042,-78.851646
780000,-0.392649,-2.322376,8.279149,3.583661,26.223761,-80.103554
784000,-0.158017,-2.437297,8.248025,5.278317,27.719944,-81.080658
788000,-0.579397,-2.535460,8.125920,7.095111,37.307728,-79.874550
792000,-1.403002,-2.578555,7.888895,7.614195,36.177959,-79.050117
796000,-1.630451,-2.420538,7.450756,6.576027,34.498569,-76.332565
800000,-1.551443,-2.341529,7.580042,4.637096,40.376431,-72.134087
804000,-1.534683,-2.293645,7.467515,2.331753,44.926048,-68.271492
808000,-1.434127,-2.173935,7.486669,0.270684,47.933685,-64.973785
812000,-1.221043,-2.130840,7.433996,-0.965957,49.948952,-62.912716
816000,-0.974440,-2.099715,7.410054,-3.286568,53.429867,-61.279129
820000,-0.888249,-2.078167,7.580042,-4.492675,55.506203,-59.935616
824000,-0.893037,-2.090138,7.587225,-5.164431,55.231392,-59.645538
828000,-0.768539,-2.161964,7.754819,-5.256034,54.712311,-59.645538
832000,-0.979228,-2.243367,7.673417,-4.706415,53.384064,-60.027218
836000,-1.290475,-2.233790,7.694964,-4.172065,51.994751,-59.599739
840000,-1.371878,-2.308010,7.474698,-2.385804,49.353531,-59.966152
844000,-1.726219,-2.219425,7.388506,-3.164430,46.529102,-58.882183
848000,-1.838747,-2.195483,7.513005,-2.660614,45.399334,-57.737144
852000,-2.090138,-2.219425,7.515399,-2.187331,43.322998,-55.920349
856000,-2.413355,-2.080561,7.740454,-2.187331,39.887882,-53.477600
860000,-2.298434,-2.094927,7.888895,2.698165,38.330631,-51.645538
864000,-2.317587,-1.958457,7.833828,1.659997,36.681774,-48.088287
868000,-2.422932,-1.860295,8.231265,4.820302,32.177959,-45.874546
872000,-1.845930,-1.640028,8.106767,6.576027,31.872616,-43.966152
876000,-1.896208,-1.544260,8.104373,7.003509,31.124523,-42.775311
880000,-1.537078,-1.479617,8.180987,8.835569,31.521469,-42.088287
884000,-1.474828,-1.369483,7.869741,9.476790,31.994751,-42.027218
888000,-1.139640,-1.484405,7.836222,13.461523,35.078720,-42.531036
892000,-1.383849,-1.470040,7.505822,11.125646,31.658875,-42.668442
896000,-1.587356,-1.508347,7.536947,12.713431,31.429867,-42.469967
900000,-1.668759,-1.544260,7.486669,13.308851,29.170324,-42.286762
904000,-1.709460,-1.683124,7.105990,12.698165,26.468035,-42.683708
908000,-1.637634,-1.865083,7.127539,15.110378,26.101622,-43.279129
912000,-1.831564,-1.984793,7.070077,11.721066,25.536737,-42.332561
916000,-2.264915,-2.281674,7.235278,13.263050,23.185593,-41.218060
920000,-1.984793,-2.370260,7.256825,12.377554,19.506203,-40.729511
924000,-1.934515,-2.650381,7.505822,12.576027,18.773378,-40.866913
928000,-1.999158,-2.810793,7.481880,12.301218,14.635974,-42.744778
932000,-1.903390,-3.019088,7.989451,12.667630,11.185592,-44.271496
936000,-1.912967,-3.114856,8.585608,12.896638,12.223760,-44.546303
940000,-2.003947,-3.222595,8.889671,14.163814,13.796279,-45.156990
944000,-2.126051,-3.203442,8.947132,14.667630,15.521470,-44.958519
948000,-2.394202,-3.143587,9.014170,15.186714,17.597805,-44.576839
952000,-2.425326,-3.160346,9.119514,15.553126,21.567272,-43.813480
956000,-2.583344,-3.145981,9.081207,15.537859,24.864981,-42.424168
960000,-2.631228,-3.141193,9.059659,16.514959,26.971851,-41.462334
964000,-2.789245,-3.155558,8.836999,17.507326,27.399332,-40.164623
968000,-2.849100,-2.844312,8.465898,15.492058,26.162691,-39.492870
972000,-2.839523,-2.825158,8.413225,15.247783,26.910784,-37.782944
976000,-2.820370,-2.832341,8.415619,15.492058,23.475668,-37.523403
980000,-1.872266,-3.095703,8.374918,24.759233,27.567272,-34.073021
984000,-2.456451,-2.138022,8.322245,14.698165,20.162691,-36.515770
988000,-1.817199,-2.494758,8.276755,14.270683,15.918417,-39.492870
992000,-1.671153,-2.501941,8.238448,15.461523,17.887882,-41.645538
996000,-1.711854,-2.250550,8.238448,14.606562,16.956585,-43.477600
1000000,-1.304840,-2.015918,8.700529,13.186714,20.605440,-44.179890
1004000,-1.134852,-2.037466,9.157822,14.560760,28.376432,-44.882183
1008000,-1.127669,-2.001553,9.121908,17.095112,32.223759,-46.408897
1012000,-1.204283,-1.826776,8.786720,17.782135,31.552004,-50.103554
1016000,-1.307234,-1.546654,8.360553,16.347019,30.315363,-53.019585
1020000,-1.307234,-1.654393,8.291121,16.163815,31.322996,-55.172256
1024000,-1.532289,-1.723825,8.085219,22.255417,37.139790,-55.752411
1028000,-1.632846,-1.642422,8.240842,13.965341,28.956585,-58.317295
1032000,-1.343147,-2.013524,8.566454,16.194347,30.086355,-60.546303
1036000,-1.680730,-2.092532,8.497022,16.240150,28.544371,-63.141724
1040000,-1.774103,-2.238579,8.853758,17.690531,23.796280,-66.683708
1044000,-2.322376,-2.202666,7.994239,15.782134,11.322997,-69.508133
1048000,-2.509123,-2.398990,8.595184,17.492058,15.231394,-69.034851
1052000,-2.298434,-2.636016,8.566454,18.835569,22.559637,-68.271492
1056000,-3.141193,-2.540248,8.128315,15.858470,14.574905,-68.805847
1060000,-2.825158,-2.722207,8.477868,16.026409,18.590172,-68.821114
1064000,-3.272874,-2.619257,8.588001,12.911905,19.704676,-67.523399
1068000,-3.004723,-2.889802,9.136273,22.713432,34.605438,-63.324928
1072000,-3.260903,-2.604892,10.151415,14.011142,37.567272,-60.973785
1076000,-3.414132,-2.533065,9.962274,16.789768,42.086357,-59.828747
1080000,-3.177106,-2.293645,9.830592,18.499691,45.918415,-58.912716
1084000,-3.385401,-2.343924,9.524135,20.179081,47.979485,-59.080654
1088000,-3.368642,-2.221819,9.109938,18.988241,47.292461,-58.851646
1092000,-3.380613,-2.111686,8.262390,19.721066,45.826813,-57.905083
1096000,-3.897760,-1.762132,8.255207,15.018775,49.750477,-54.332561
1100000,-3.916914,-1.668759,7.891289,12.667630,46.834446,-52.912716
1104000,-2.796427,-1.759738,8.116343,14.866103,55.613071,-51.844013
1108000,-3.464410,-1.529895,8.216900,10.545493,55.979485,-51.813480
1112000,-3.193865,-1.534683,7.800309,9.110378,50.239029,-53.553936
1116000,-2.923320,-1.403002,7.829040,8.438622,53.552006,-52.912716
1120000,-3.043030,-1.436521,8.001422,7.430989,50.834446,-53.355465
1124000,-2.506729,-1.455675,8.257602,8.484425,50.544373,-54.225693
1128000,-2.542642,-1.364695,8.219295,7.461524,47.826813,-57.477600
1132000,-2.353500,-1.352724,7.489063,7.125646,40.956585,-63.538670
1136000,-2.327164,-1.266533,7.261614,7.583661,42.742844,-66.866913
1140000,-3.055001,-1.163582,7.125144,6.591295,43.185593,-68.088287
1144000,-3.292027,-1.357512,6.363788,2.896638,33.490936,-70.790581
1148000,-3.169923,-1.465251,6.198588,2.209615,33.414600,-72.363098
1152000,-3.845088,-1.584962,6.069301,-0.782751,27.231394,-73.889816
1156000,-4.201824,-1.642422,5.808333,-3.698782,20.788645,-74.958519
1160000,-4.436456,-1.675941,5.827487,-8.004126,15.628340,-74.439430
1164000,-4.809951,-1.522712,6.186617,-11.423973,16.071089,-70.271492
1168000,-5.125986,-1.575385,6.677429,-14.049928,11.292462,-66.118820
1172000,-5.073313,-1.561020,6.785168,-16.477407,7.322997,-61.111191
1176000,-4.821922,-1.563414,6.761226,-18.645346,6.987119,-56.668442
1180000,-4.936844,-1.431733,6.842628,-22.217865,7.429867,-51.920349
1184000,-4.752491,-1.414973,7.515399,-24.599545,8.712310,-46.653175
1188000,-4.563348,-1.462857,8.552089,-25.256033,13.261928,-39.538670
1192000,-4.132392,-1.592144,9.679757,-20.477407,20.651241,-34.118824
1196000,-3.548207,-1.529895,9.607931,-16.080460,32.254295,-30.363098
1200000,-4.331111,-1.314417,9.148245,-18.477407,25.628340,-28.836380
1204000,-3.143587,-1.482011,9.612720,-10.874354,32.361164,-28.011953
1208000,-3.052607,-1.953669,9.282320,2.224883,44.651241,-24.927982
1212000,-4.297592,-0.969652,8.705317,-11.164431,36.895515,-24.760044
1216000,-3.933673,-1.424550,8.473080,-8.004126,33.597805,-24.760044
1220000,-4.089296,-1.340753,8.781932,-6.263667,38.910782,-21.584471
1224000,-4.295198,-1.534683,8.427590,-3.301835,34.697041,-20.103556
1228000,-4.194642,-1.632846,8.329428,-1.347636,31.246660,-17.828747
1232000,-4.074931,-1.661576,8.504205,2.591295,30.101622,-15.691342
1236000,-4.429273,-1.414973,8.137892,2.499691,21.613073,-13.706610
1240000,-3.545813,-1.438915,8.458714,5.507325,16.987120,-11.233328
1244000,-2.832341,-1.393425,8.461109,9.919538,19.185593,-10.256228
1248000,-2.473210,-1.350330,8.224083,13.782134,16.300097,-12.424167
1252000,-2.188300,-1.302446,7.740454,15.782134,11.185592,-16.302029
1256000,-2.003947,-1.233014,7.520187,17.369921,6.406967,-21.370731
1260000,-2.054225,-1.194707,7.199365,17.705799,2.422234,-25.401266
1264000,-2.173935,-1.146823,7.005434,17.430990,-0.005247,-28.332563
1268000,-2.176329,-1.187524,6.861782,16.316486,-1.226621,-30.393631
1272000,-2.530671,-1.218649,6.430826,13.995874,-3.959446,-32.195160
1276000,-2.494758,-1.410185,6.143522,12.911905,-1.593034,-32.729511
1280000,-2.971204,-1.283292,5.978322,8.530226,-8.783874,-33.798210
1284000,-3.071761,-1.137246,6.145916,5.415722,-6.814407,-32.286762
1288000,-3.241749,-1.163582,6.210559,1.782134,-7.348759,-30.775311
1292000,-3.287239,-1.189918,6.131551,-2.584278,-7.562499,-28.897449
1296000,-3.052607,-1.256956,6.311116,-6.233133,-4.677003,-27.416533
1300000,-3.023877,-1.221043,6.265626,-9.729317,-2.035782,-26.103556
1304000,-3.095703,-1.290475,6.579266,-13.225499,0.956585,-24.927982
1308000,-3.083732,-1.204283,6.627151,-16.248400,4.742845,-23.813478
1312000,-3.337517,-1.240196,6.883330,-18.233131,6.971852,-22.546303
1316000,-3.459621,-1.149217,6.959944,-20.950689,8.361164,-21.004318
1320000,-3.495534,-1.225831,6.885724,-21.866720,11.002386,-19.477602
1324000,-3.481169,-1.297657,7.010222,-22.233131,16.040554,-17.218060
1328000,-3.689465,-1.362301,6.859388,-23.164431,17.017653,-15.248594
1332000,-3.730166,-1.352724,6.828263,-23.775116,17.521469,-13.111190
1336000,-3.660734,-1.331176,7.101202,-24.553743,16.544371,-10.637908
1340000,-3.335123,-1.395820,7.876924,-23.912521,18.681776,-8.134090
1344000,-3.268085,-1.515530,8.271967,-21.423971,21.292461,-6.469968
1348000,-3.150769,-1.489193,8.293514,-19.271299,20.651241,-5.767678
1352000,-3.043030,-1.189918,8.202535,-18.110994,18.773378,-5.553937
1356000,-2.796427,-1.175553,8.465898,-19.805651,16.956585,-5.370731
1360000,-2.422932,-1.520318,8.362947,-17.286568,18.742844,-6.454701
1364000,-2.798822,-1.534683,8.140285,-15.225499,18.712309,-6.760045
1368000,-3.179500,-1.666364,8.042124,-12.965957,14.574905,-7.172258
1372000,-3.222595,-1.757344,8.116343,-10.034659,11.521470,-6.302029
1376000,-3.497929,-1.802834,8.042124,-7.790385,6.025287,-5.233327
1380000,-3.514688,-1.910573,8.159439,-5.347637,1.842081,-3.966152
1384000,-3.531447,-1.917756,8.044518,-3.362904,-1.104484,-2.668442
1388000,-3.445256,-1.877054,7.979874,-1.881988,-3.760972,-1.523403
1392000,-3.380613,-1.800440,7.888895,-1.378171,-5.516697,-0.607373
1396000,-3.375824,-1.728614,7.864953,-1.393438,-7.058682,0.384994
1400000,-3.284845,-1.692701,7.728483,-2.126262,-7.654102,1.774307
1404000,-3.122039,-1.580173,7.951144,-3.301835,-5.669369,3.346826
1408000,-2.887407,-1.520318,7.979874,-4.859087,-2.738072,4.094917
1412000,-2.688689,-1.383849,7.908048,-6.416339,0.651241,4.217055
1416000,-2.609680,-1.321599,7.781156,-8.798018,4.040555,3.942245
1420000,-2.513912,-1.235408,7.678205,-10.828553,7.002387,3.468963
1424000,-2.561796,-1.352724,7.685388,-12.660613,8.987119,3.423162
1428000,-2.578555,-1.326388,7.635109,-13.576644,8.803913,2.888810
1432000,-2.509123,-1.410185,7.888895,-14.401073,7.231394,2.171253
1436000,-2.466028,-1.441309,8.037335,-13.729316,5.109257,1.133085
1440000,-2.358289,-1.493982,8.231265,-12.645347,2.712310,-0.500503
1444000,-2.286463,-1.546654,8.269572,-12.049927,2.269562,-2.469968
1448000,-2.494758,-1.556231,8.250419,-10.675881,2.635974,-4.240961
1452000,-2.693477,-1.551443,8.307879,-9.714049,3.384066,-5.492869
1456000,-2.803610,-1.632846,8.231265,-9.057561,4.590173,-5.721877
1460000,-3.179500,-1.778892,8.492233,-6.614813,2.590173,-6.576838
1464000,-3.270479,-1.786075,8.418014,-4.721683,2.620707,-6.210426
1468000,-3.438074,-1.843535,8.130709,-2.416339,2.758112,-5.431800
1472000,-3.493140,-1.924938,7.857770,-1.515576,1.414600,-5.004319
1476000,-3.469198,-1.817199,7.687782,-1.042293,0.834447,-4.363098
1480000,-3.318364,-1.709460,7.728483,-0.828552,-0.554866,-3.828747
1484000,-3.112462,-1.719037,7.757214,-0.645346,0.437501,-3.080655
1488000,-2.865860,-1.611298,7.685388,-0.370538,1.277195,-3.004319
1492000,-2.712631,-1.549049,7.467515,-0.935423,1.964218,-3.737144
1496000,-2.636016,-1.498770,7.493851,-1.622446,2.361165,-4.118823
1500000,-2.676718,-1.577779,7.316680,-2.904888,2.895516,-4.378365
1504000,-2.705448,-1.632846,7.302315,-3.683514,2.971852,-4.622640
1508000,-2.736573,-1.752556,7.347805,-4.889622,2.834447,-4.576838
1512000,-2.920926,-1.843535,7.350199,-5.912522,2.208493,-4.454701
1516000,-2.971204,-1.860295,7.386112,-6.996491,1.139791,-4.302029
1520000,-3.074155,-1.951274,7.383718,-7.897255,0.483302,-3.798213
1524000,-3.265691,-1.944092,7.402872,-9.149163,-2.264789,-3.233327
1528000,-3.253720,-1.987187,7.642292,-10.462141,-4.738071,-2.576838
1532000,-3.052607,-1.999158,7.896077,-11.378171,-5.455629,-2.057755
1536000,-2.887407,-2.006341,8.113950,-11.775118,-5.944179,-2.317297
1540000,-2.834735,-2.078167,8.224083,-11.500309,-6.738071,-3.080655
1544000,-2.796427,-2.042254,8.317456,-10.950690,-7.073949,-3.447068
1548000,-2.918532,-2.176329,8.429984,-10.278934,-7.394560,-3.676075
1552000,-2.880225,-2.164358,8.489840,-9.485042,-7.669369,-4.103556
1556000,-2.856283,-2.140416,8.705317,-8.507942,-7.135018,-3.935617
1560000,-2.717419,-2.217031,8.774749,-6.859087,-6.631201,-4.363098
1564000,-2.779668,-2.224213,8.803479,-5.133897,-5.867843,-4.424167
1568000,-2.767697,-2.303222,8.777143,-3.027026,-7.135018,-4.866915
1572000,-2.741361,-2.293645,8.700529,-1.378171,-7.760972,-5.279129
1576000,-2.681506,-2.331953,8.714894,-0.416339,-8.463263,-5.844014
1580000,-2.705448,-2.442086,8.772355,0.377554,-8.386927,-5.813479
1584000,-2.715025,-2.492364,8.671799,1.843203,-8.432729,-5.798213
1588000,-2.743755,-2.518700,8.561666,3.079844,-9.180820,-5.721877
1592000,-2.726996,-2.540248,8.463503,3.385188,-10.432729,-5.630273
1596000,-2.806004,-2.561796,8.305486,3.690531,-11.058682,-5.553937
1600000,-2.875436,-2.604892,8.209718,3.278317,-11.531965,-4.683709
1604000,-2.987964,-2.497152,7.975086,2.789768,-12.722805,-3.859281
1608000,-3.083732,-2.568978,7.963115,1.430989,-13.776240,-3.263861
1612000,-3.007117,-2.530671,8.034941,0.576027,-13.486164,-2.027220
1616000,-3.021482,-2.530671,8.034941,-0.202598,-11.822042,-0.897449
1620000,-2.947262,-2.360683,7.979874,-1.500308,-10.967080,0.155986
1624000,-2.846706,-2.310405,7.838616,-3.362904,-8.646469,1.667436
1628000,-3.009511,-2.485181,8.099585,-4.569011,-9.104485,2.797207
1632000,-2.477999,-2.353500,8.353370,-5.347637,-6.860209,2.980413
1636000,-2.061408,-2.367866,8.161834,-5.103362,4.987119,4.537665
1640000,-2.446874,-2.190695,8.068460,-7.133897,-1.333492,2.262856
1644000,-2.025495,-2.126051,8.216900,-7.820919,5.704677,3.194154
1648000,-2.288857,-2.193089,8.137892,-7.759851,5.887883,2.247589
1652000,-2.310405,-2.171541,8.262390,-8.355270,4.086356,1.438429
1656000,-2.190695,-2.296039,8.267179,-7.561378,5.292463,1.194154
1660000,-2.442086,-2.276886,8.276755,-6.569011,4.254295,0.552933
1664000,-2.442086,-2.339135,8.183381,-5.836186,2.437501,-0.088289
1668000,-2.566584,-2.449268,8.173804,-4.904889,1.521470,-0.363098
1672000,-2.600103,-2.533065,8.178593,-4.019392,0.025287,-0.256228
1676000,-2.846706,-2.461239,8.113950,-3.072828,-1.745705,-0.179892
1680000,-2.889802,-2.403779,8.037335,-2.645346,-2.829675,0.064383
1684000,-2.923320,-2.384625,8.169016,-6.202599,-6.020514,0.247589
1688000,-2.810793,-2.525883,8.121132,-3.469774,-3.180820,1.392627
1692000,-2.817975,-2.576161,8.020576,-0.156797,-3.394560,1.865910
1696000,-2.657564,-2.446874,7.960721,0.194348,-3.028148,2.186520
1700000,-2.545036,-2.391808,8.080431,0.469157,-2.096850,2.491864
1704000,-2.408567,-2.353500,8.092402,0.621829,-1.837308,2.323925
1708000,-2.367866,-2.343924,8.190564,1.293585,-0.814408,1.972780
1712000,-2.291251,-2.274492,7.999028,1.812669,1.735211,1.652169
1716000,-2.197877,-2.202666,7.833828,1.644730,3.093989,1.407894
1720000,-2.027889,-2.248155,7.910442,1.522592,2.269562,0.293391
1724000,-2.059013,-2.250550,7.917625,1.553127,2.147424,-0.500503
1728000,-2.075773,-2.243367,7.967903,1.492058,1.689409,-1.370732
1732000,-2.003947,-2.252944,7.955932,1.873737,1.368798,-2.073022
1736000,-2.080561,-2.207454,7.996634,1.843203,1.918417,-2.943251
1740000,-2.331953,-2.377442,8.130709,2.988241,-1.272423,-3.676075
1744000,-2.236184,-2.272097,8.030152,3.278317,-2.554866,-4.118823
1748000,-2.442086,-2.336741,7.809886,3.446256,-4.509064,-4.378365
1752000,-2.545036,-2.422932,7.953538,3.629463,-6.524331,-4.302029
1756000,-2.597709,-2.415750,7.730877,3.614195,-7.272423,-4.027220
1760000,-2.729390,-2.439692,7.668628,3.415722,-8.325858,-3.737144
1764000,-2.736573,-2.501941,7.762002,3.308852,-9.364026,-3.294396
1768000,-2.765303,-2.468422,7.730877,3.293585,-9.531965,-2.775312
1772000,-2.765303,-2.403779,7.754819,2.667631,-9.348759,-2.042487
1776000,-2.734178,-2.353500,7.702147,1.873737,-8.570133,-1.721877
1780000,-2.808398,-2.422932,7.687782,1.095111,-7.867843,-1.050121
1784000,-2.753332,-2.396596,7.656657,0.377554,-6.524331,-0.210426
1788000,-2.700660,-2.384625,7.611167,-0.660614,-4.753339,0.766673
1792000,-2.705448,-2.425326,7.570466,-1.591912,-3.562499,1.682703
1796000,-2.679112,-2.413355,7.680599,-2.492675,-2.615934,2.323925
1800000,-2.647987,-2.387019,7.671022,-4.110995,-2.799140,3.117818
1804000,-2.583344,-2.401384,7.814674,-4.187331,-6.020514,3.270490
1808000,-2.231396,-2.394202,7.869741,-4.828553,-1.654102,3.530032
1812000,-2.346318,-2.339135,7.965509,-5.317102,-1.119751,3.438429
1816000,-2.181118,-2.308010,7.960721,-5.133897,-1.455629,3.560566
1820000,-2.157176,-2.348712,7.989451,-4.630079,-1.699904,3.072016
1824000,-2.135628,-2.286463,8.061277,-4.049927,-2.677003,2.323925
1828000,-2.128445,-2.367866,8.022970,-3.240766,-3.638835,1.743772
1832000,-2.102109,-2.434903,8.054094,-2.248400,-4.844942,1.117818
1836000,-2.087744,-2.446874,8.092402,-1.408705,-5.669369,0.354459
1840000,-2.188300,-2.506729,8.173804,-0.431606,-7.058682,-0.149358
1844000,-2.226608,-2.511518,8.152257,0.301218,-8.906011,-0.668442
1848000,-2.312799,-2.540248,8.137892,1.247783,-10.218988,-0.775312
1852000,-2.360683,-2.557007,8.094796,1.736333,-11.119752,-1.080655
1856000,-2.489970,-2.578555,8.066066,1.797401,-11.699904,-0.882182
1860000,-2.477999,-2.573767,7.991845,1.980608,-11.226622,-0.302029
1864000,-2.528277,-2.590526,7.967903,1.950073,-10.341125,0.232322
1868000,-2.506729,-2.616863,7.994239,1.721066,-9.394561,0.446062
1872000,-2.461239,-2.501941,8.025364,1.507325,-8.631202,0.949879
1876000,-2.523489,-2.557007,8.030152,0.789768,-7.867843,1.530032
1880000,-2.389413,-2.434903,8.097190,0.438623,-6.921278,2.293390
1884000,-2.413355,-2.372654,7.917625,-0.248400,-6.280056,2.339192
1888000,-2.315193,-2.288857,8.003817,-1.103362,-4.646469,2.995681
1892000,-2.233790,-2.334347,8.034941,-2.065194,-2.539598,3.056749
1896000,-2.212242,-2.217031,8.027759,-2.538476,-1.470896,3.010948
1900000,-2.149993,-2.181118,8.183381,-2.950690,-0.142652,2.858276
1904000,-2.020706,-2.252944,8.025364,-3.103362,0.971852,2.446062
1908000,-1.984793,-2.207454,8.116343,-2.340003,1.200860,1.865910
1912000,-1.886631,-2.169147,8.128315,-0.981224,1.002386,0.781940
1916000,-2.075773,-2.284068,8.030152,0.713432,-0.722805,-0.271495
1920000,-2.082955,-2.300828,8.056489,2.392821,-3.089217,-0.760045
1924000,-2.255338,-2.305616,8.027759,4.041677,-6.249522,-1.508136
1928000,-2.310405,-2.303222,7.750031,5.156180,-10.478530,-2.103556
1932000,-2.468422,-2.255338,7.795521,6.133279,-15.394561,-2.973785
1936000,-2.221819,-2.331953,7.812280,7.690531,-15.638836,-3.034854
1940000,-2.276886,-2.281674,7.872135,8.285952,-17.913645,-3.156991
1944000,-2.360683,-2.298434,7.829040,8.728700,-19.379293,-3.111190
1948000,-2.592921,-2.252944,7.814674,8.911905,-20.844942,-2.866915
1952000,-2.401384,-2.205060,7.730877,8.347020,-22.127384,-2.500503
1956000,-2.389413,-2.197877,7.644686,6.957707,-20.142653,-1.538671
1960000,-2.389413,-2.169147,7.539341,5.553127,-19.302958,-0.866915
1964000,-2.336741,-2.094927,7.503428,3.415722,-18.112118,0.094917
1968000,-2.315193,-2.054225,7.730877,1.278317,-16.371660,1.102551
1972000,-2.224213,-2.001553,7.651869,-0.965957,-14.615934,1.789574
1976000,-2.094927,-2.037466,7.716512,-3.210232,-12.417461,2.446062
1980000,-2.054225,-1.994370,7.817069,-5.546110,-9.440362,3.255223
1984000,-1.862689,-1.968034,7.943961,-7.668247,-6.432728,3.636902
1988000,-1.795651,-1.958457,8.039729,-9.454507,-3.699904,3.988047
1992000,-1.762132,-1.977611,8.291121,-10.569011,-3.150285,3.255223
1996000,-1.766921,-1.987187,8.166622,-11.423973,-2.157919,2.537665
