time_us,ax,ay,az,gx,gy,gz
0,1.146823,-0.296881,8.451532,-0.981224,0.437501,0.614001
4000,1.072602,-0.272939,8.453926,-0.813286,-0.386927,0.293391
8000,1.146823,-0.222661,8.497022,-0.950690,-1.638835,-0.011953
12000,1.134852,-0.210690,8.415619,-1.027026,-2.249522,-0.073022
16000,1.197101,-0.213084,8.492233,-1.332370,-2.753339,-0.302029
20000,1.103727,-0.301669,8.578424,-1.576644,-3.593034,-0.546304
24000,1.127669,-0.373495,8.611943,-1.668247,-3.944179,-0.332564
28000,1.048660,-0.337582,8.611943,-1.485041,-4.142652,-0.515770
32000,1.036689,-0.383072,8.566454,-1.439240,-4.677003,-0.424167
36000,1.103727,-0.361524,8.705317,-1.362904,-3.928911,-0.073022
40000,1.168370,-0.359130,8.841787,-1.118629,-3.684637,-0.149358
44000,1.194707,-0.433351,8.829816,-0.675881,-3.104484,-0.256228
48000,1.247379,-0.459687,8.851364,-0.416339,-2.325858,-0.469968
52000,1.225831,-0.481235,8.796297,-0.752217,-1.852576,-0.607373
56000,1.199495,-0.469264,8.863335,-0.614812,-1.516698,-0.729510
60000,1.146823,-0.519542,8.789114,-0.782751,-1.623568,-0.592106
64000,1.120486,-0.555455,8.872911,-0.935423,-1.791507,-0.546304
68000,1.029507,-0.517148,8.908825,-1.240766,-1.944179,-0.363098
72000,1.161188,-0.521936,8.959103,-1.225499,-1.699904,0.033849
76000,1.185130,-0.545878,8.889671,-0.965957,-1.348759,0.308658
80000,1.228225,-0.550666,8.848969,-1.103362,-1.379293,0.552933
84000,1.228225,-0.500388,8.808268,-1.118629,-1.333492,0.644536
88000,1.362301,-0.464475,8.997410,-1.133896,-0.799140,0.644536
92000,1.369483,-0.500388,8.877700,-0.782751,-0.799140,0.171253
96000,1.465251,-0.481235,8.916007,-0.767484,-1.165553,0.018581
100000,1.534683,-0.445322,8.992621,-0.126262,-1.196087,-0.424167
104000,1.568202,-0.421380,8.846576,0.392821,-0.661736,-0.973785
108000,1.635240,-0.442927,8.951921,0.652363,-0.386927,-1.492869
112000,1.635240,-0.418985,8.954314,0.988241,-0.356392,-1.569205
116000,1.663970,-0.368707,8.875306,1.415722,-0.493797,-2.042487
120000,1.692701,-0.428562,8.820239,1.690531,-0.493797,-2.317297
124000,1.826776,-0.332794,8.748413,1.934806,-0.096850,-3.004319
128000,1.843535,-0.308852,8.583213,1.873737,0.391699,-3.615006
132000,1.704672,-0.344765,8.489840,1.339386,0.437501,-4.225693
136000,1.726219,-0.349553,8.485051,0.866104,-0.051049,-4.668441
140000,1.704672,-0.282516,8.623915,0.514959,-0.554866,-5.065388
144000,1.702277,-0.378284,8.528147,0.392821,-0.844942,-5.233327
148000,1.726219,-0.368707,8.494628,0.240150,-1.669369,-5.660808
152000,1.759738,-0.411803,8.561666,0.163814,-2.570133,-5.798213
156000,1.776498,-0.433351,8.674192,0.347020,-3.257156,-6.073021
160000,1.719037,-0.399832,8.865729,0.423356,-3.959446,-6.500503
164000,1.776498,-0.447716,8.939949,0.713432,-4.799140,-6.882182
168000,1.764527,-0.344765,8.887277,1.217249,-5.318224,-7.141724
172000,1.891419,-0.371101,8.839393,1.339386,-5.654102,-7.401266
176000,1.881842,-0.375890,8.793902,1.369921,-5.608301,-7.615006
180000,1.929727,-0.452504,8.966286,1.446256,-5.043415,-7.569205
184000,2.027889,-0.371101,9.026140,1.919539,-3.547232,-7.523403
188000,2.142811,-0.359130,8.913613,2.056943,-1.989980,-7.813479
192000,2.317587,-0.287304,8.817844,1.995875,-0.432728,-7.920350
196000,2.475605,-0.323217,8.712500,1.889004,0.651241,-8.790579
200000,2.525883,-0.299275,8.786720,1.690531,1.994753,-9.355465
204000,2.568978,-0.304064,8.760384,1.003508,3.048188,-10.363098
208000,2.631228,-0.241814,8.736442,0.667630,3.750478,-10.897449
212000,2.707842,-0.215478,8.743625,0.179081,3.719944,-11.935617
216000,2.662352,-0.256180,8.805874,0.423356,3.048188,-12.973785
220000,2.671929,-0.265756,8.846576,0.408088,2.055821,-13.569205
224000,2.631228,-0.246603,8.825027,0.667630,1.017653,-14.821114
228000,2.671929,-0.253785,8.793902,0.728699,-0.066316,-15.111190
232000,2.748544,-0.260968,8.906430,0.881371,-1.028148,-16.149357
236000,2.750938,-0.227449,8.983045,1.003508,-1.898377,-16.973785
240000,2.820370,-0.260968,9.030929,1.446256,-2.310591,-18.088287
244000,2.820370,-0.205901,8.987833,1.889004,-2.478530,-18.821114
248000,2.892196,-0.177171,8.990228,2.041676,-2.234255,-19.538670
252000,2.928109,-0.134075,8.930372,2.133279,-0.844942,-20.240959
256000,3.007117,-0.181959,8.942344,2.255417,0.742844,-21.111189
260000,2.873042,-0.162806,8.753201,2.118012,1.704676,-22.027220
264000,2.954445,-0.136469,8.822633,2.087478,2.284829,-22.882181
268000,3.019088,-0.205901,8.930372,2.011142,3.139791,-24.088287
272000,2.959233,-0.184354,8.863335,2.087478,3.353531,-24.821114
276000,2.992752,-0.160412,8.815451,1.950073,3.307730,-26.103556
280000,2.968810,-0.237026,8.772355,2.056943,3.063455,-26.989052
284000,3.205836,-0.296881,8.906430,2.331753,3.979486,-28.454700
288000,3.114856,-0.229843,9.047688,1.919539,3.048188,-30.363098
292000,2.987964,-0.347159,9.059659,2.209615,2.941318,-31.584471
296000,2.908955,-0.294487,9.045294,2.240149,3.002386,-32.790577
300000,2.908955,-0.359130,9.093178,2.576027,1.658875,-34.256226
304000,2.717419,-0.464475,9.255983,3.385188,1.002386,-35.080654
308000,2.602497,-0.521936,9.270349,3.904272,0.666508,-35.431801
312000,2.487576,-0.569820,9.191340,4.362287,0.406966,-35.813480
316000,2.454057,-0.557849,9.210494,4.805035,0.193226,-35.721874
320000,2.583344,-0.658405,9.126697,5.644730,1.017653,-36.439434
324000,2.774880,-0.490811,9.042900,6.011142,0.910783,-37.126457
328000,2.935291,-0.531513,9.040505,5.843203,1.109257,-38.302029
332000,2.954445,-0.497994,8.923190,5.858470,1.933684,-39.935616
336000,2.861071,-0.581791,8.872911,5.980608,1.292463,-40.683708
340000,2.899378,-0.536301,8.899248,5.583661,0.773379,-41.935616
344000,2.920926,-0.591368,8.935161,5.446257,1.155058,-43.095921
348000,2.877831,-0.517148,8.717288,5.156180,1.781012,-44.027218
352000,2.832341,-0.533907,8.525752,4.805035,1.811547,-44.714241
356000,2.810793,-0.488417,8.520964,4.316485,2.254295,-45.156990
360000,2.686294,-0.433351,8.544906,3.889004,2.681776,-45.905083
364000,2.779668,-0.512359,8.475474,3.736333,3.368799,-46.668442
368000,2.794033,-0.430956,8.382100,3.369921,3.322997,-47.187527
372000,2.813187,-0.447716,8.401254,2.866104,3.307730,-48.286762
376000,2.849100,-0.423774,8.513782,2.682898,3.552005,-49.279129
380000,2.829947,-0.469264,8.487445,2.682898,3.582539,-50.347832
384000,2.767697,-0.445322,8.439561,2.942440,2.758112,-51.416534
388000,2.772485,-0.507571,8.530540,3.507325,2.437501,-52.424168
392000,2.779668,-0.507571,8.693346,3.934806,1.781012,-53.721874
396000,2.734178,-0.531513,8.635885,4.194348,1.216127,-54.805847
400000,2.736573,-0.493206,8.631097,4.484425,0.651241,-55.691341
404000,2.875436,-0.600945,8.623915,4.499691,0.788646,-57.172256
408000,3.141193,-0.579397,8.695741,4.743967,0.849715,-58.500504
412000,3.174711,-0.581791,8.628703,4.988241,1.109257,-60.653175
416000,3.134010,-0.560243,8.580819,5.293585,0.742844,-62.118824
420000,3.043030,-0.605733,8.544906,5.095111,1.093989,-63.538670
424000,2.894590,-0.636858,8.599973,5.263051,1.597806,-64.714241
428000,2.770091,-0.644040,8.386889,4.835569,2.330631,-65.508133
432000,2.710236,-0.749385,8.327033,4.087478,2.620707,-66.439430
436000,2.580950,-0.761356,8.394072,3.690531,2.391699,-66.760040
440000,2.497152,-0.802058,8.602366,3.308852,2.330631,-67.065384
444000,2.463634,-0.828394,8.638280,3.446256,2.559638,-67.462334
448000,2.358289,-0.852336,8.520964,3.079844,2.315363,-67.508133
452000,2.236184,-0.809240,8.504205,2.743967,2.177959,-67.905083
456000,2.279280,-0.926556,8.604761,2.408089,2.132157,-68.179893
460000,2.159570,-0.871489,8.597578,2.026409,1.918417,-68.118820
464000,2.334347,-0.950498,8.616732,2.316485,1.200860,-68.943253
468000,2.322376,-0.940921,8.777143,2.499691,0.422234,-69.492867
472000,2.200271,-0.986411,8.738836,3.034043,-0.509064,-70.027222
476000,2.164358,-1.019930,8.762778,3.308852,-1.425095,-70.561569
480000,2.166753,-0.998382,8.817844,4.682898,-0.661736,-70.989052
484000,1.927332,-1.103727,8.784326,3.889004,-2.875476,-71.294395
488000,1.802834,-1.106121,8.712500,4.224883,-4.310591,-71.004318
492000,1.771709,-1.110910,8.714894,4.423356,-4.188453,-70.882179
496000,1.745373,-1.089362,8.508993,3.858470,-3.562499,-70.378365
500000,1.750161,-1.110910,8.441956,3.140913,-3.165553,-69.447067
504000,1.635240,-1.084573,8.432379,2.881371,-3.165553,-69.034851
508000,1.757344,-1.024718,8.370130,2.606562,-3.211354,-68.317299
512000,1.774103,-1.034295,8.492233,2.179081,-2.432728,-67.599739
516000,1.939303,-1.036689,8.520964,2.866104,-1.379293,-67.187523
520000,2.269703,-1.024718,8.597578,3.308852,0.483302,-67.584473
524000,2.458845,-0.804452,8.429984,2.805035,2.483302,-68.805847
528000,2.413355,-0.699107,8.348581,2.331753,2.574905,-70.240959
532000,2.310405,-0.715866,8.329428,1.263050,2.727577,-70.989052
536000,2.205060,-0.758962,8.350976,0.576027,1.460402,-72.592102
540000,2.049437,-0.754174,8.508993,-0.049927,-0.142652,-73.111191
544000,1.896208,-0.847547,8.667010,-0.324736,-0.982347,-73.599739
548000,1.319205,-0.490811,9.603143,-3.637713,0.055821,-74.134087
552000,1.747767,-0.895431,8.635885,7.308852,7.781012,-71.401268
556000,1.836353,-0.751779,8.137892,2.087478,-2.997614,-73.324928
560000,2.169147,-0.766145,8.439561,0.423356,-1.196087,-74.027222
564000,2.154782,-0.866701,8.872911,-0.904888,2.651241,-74.973785
568000,1.872266,-1.022324,9.299079,-2.065194,-0.615934,-76.134087
572000,1.956063,-1.051055,9.617508,-0.874354,1.063455,-76.332565
576000,2.047042,-1.003170,9.512163,0.530226,4.223761,-76.729507
580000,2.030283,-1.005565,9.651027,1.904272,6.559639,-77.233330
584000,2.061408,-1.134852,9.646238,3.308852,10.864982,-77.844017
588000,1.939303,-1.108515,9.457097,3.583661,13.628340,-78.393631
592000,1.788469,-1.127669,9.318233,3.446256,14.300096,-78.866913
596000,1.793257,-1.261744,9.325416,3.659997,14.162691,-79.279129
600000,1.731008,-1.285686,9.354146,4.072211,13.078722,-79.721878
604000,1.711854,-1.280898,9.174581,4.347020,12.345898,-79.981415
608000,1.673547,-1.367089,9.090784,5.095111,11.842080,-80.363098
612000,1.757344,-1.398214,9.033323,5.644730,11.933683,-80.729507
616000,1.910573,-1.498770,8.987833,6.698165,10.651241,-81.752411
620000,1.912967,-1.417367,8.868123,7.278317,10.055821,-82.943253
624000,1.910573,-1.426944,8.628703,7.430989,8.239027,-83.889816
628000,1.977611,-1.379060,8.535329,7.110379,6.177959,-85.248596
632000,2.207454,-1.458069,8.791509,6.927173,4.697043,-86.912712
636000,2.262521,-1.398214,8.872911,7.064577,4.406967,-88.821114
640000,2.248155,-1.381454,8.927979,7.064577,4.330631,-90.729507
644000,2.056619,-1.357512,8.738836,6.805035,4.849715,-91.920349
648000,1.946486,-1.383849,8.908825,6.316485,6.330631,-92.546303
652000,1.850718,-1.314417,8.892065,6.331753,8.666508,-92.851646
656000,1.795651,-1.307234,8.753201,5.751600,11.322997,-93.172256
660000,1.776498,-1.256956,8.645462,5.156180,13.796279,-93.447067
664000,1.584962,-1.206678,8.588001,4.072211,15.872616,-93.324928
668000,1.333570,-1.247379,8.370130,2.927173,17.628340,-92.790581
672000,1.450886,-1.120486,8.535329,1.766867,19.872616,-92.363098
676000,1.613692,-1.130063,8.829816,1.217249,23.246660,-91.889816
680000,1.680730,-1.043872,8.839393,1.003508,26.590172,-91.935616
684000,1.862689,-0.984017,8.774749,1.201982,28.620707,-92.912712
688000,2.315193,-0.960075,8.726865,1.766867,30.574905,-94.561569
692000,2.473210,-0.893037,8.528147,2.072211,30.727577,-96.424164
696000,2.528277,-0.840365,8.559271,2.759233,29.292461,-98.622643
700000,2.521094,-0.914585,8.719683,3.156180,27.979485,-101.874550
704000,2.305616,-1.039083,8.678981,3.889004,25.964218,-104.134087
708000,2.047042,-1.096544,8.571242,4.041677,24.223761,-105.813477
712000,1.886631,-1.175553,8.506598,4.209615,21.933683,-107.401268
716000,1.683124,-1.240196,8.523358,4.240149,20.315363,-108.332565
720000,1.656788,-1.165976,8.511387,4.270684,19.261929,-109.004318
724000,1.534683,-1.096544,8.394072,3.339386,18.468035,-109.752411
728000,1.568202,-1.122881,8.276755,2.866104,18.132156,-109.950882
732000,1.563414,-1.051055,8.087613,2.606562,18.376432,-110.210426
736000,1.561020,-1.072602,8.135497,1.324119,19.781012,-110.347832
740000,1.683124,-1.010353,8.046912,-0.248400,22.590172,-110.225693
744000,1.812411,-0.986411,8.145074,-2.202598,26.529104,-110.698975
748000,2.027889,-0.964863,8.197746,-3.515576,30.620707,-111.080658
752000,2.097321,-0.991199,8.063671,-4.599545,34.727577,-112.118820
756000,2.070984,-0.991199,7.958326,-5.546110,38.422234,-113.416534
760000,2.068590,-0.945710,7.860164,-6.813286,40.773376,-114.958519
764000,1.917756,-1.053449,7.716512,-8.233133,41.643608,-116.592102
768000,1.716643,-1.247379,7.795521,-8.813286,39.979485,-117.706612
772000,1.620875,-1.283292,7.639898,-9.347637,37.719944,-119.248596
776000,1.539472,-1.333570,7.671022,-10.752217,34.468037,-121.156990
780000,1.434127,-1.343147,7.752425,-11.927790,31.109257,-122.866913
784000,1.304840,-1.424550,7.829040,-13.133897,27.506203,-124.485237
788000,1.127669,-1.479617,8.020576,-14.049928,24.376432,-125.844017
792000,0.818817,-1.539472,8.054094,-14.889621,22.773378,-126.546303
796000,0.706290,-1.503559,8.087613,-15.714049,22.437500,-126.989052
800000,0.699107,-1.582567,8.099585,-16.691147,23.231394,-126.729507
804000,0.694318,-1.520318,8.063671,-17.683514,25.216125,-126.454704
808000,0.632069,-1.565808,8.209718,-18.584276,27.750477,-126.363098
812000,0.816423,-1.496376,8.415619,-19.469774,31.597805,-126.485237
816000,1.060631,-1.527501,8.609550,-19.881987,35.903149,-126.927986
820000,1.041478,-1.570596,8.614338,-20.294201,39.674141,-128.195160
824000,0.919373,-1.671153,8.693346,-19.485041,43.048187,-129.126450
828000,0.828394,-1.680730,8.662222,-19.133896,44.941319,-129.615005
832000,1.019930,-1.738190,8.987833,-18.416338,45.948952,-131.370728
836000,1.027112,-1.850718,9.011775,-16.859087,46.193226,-132.576843
840000,0.754174,-2.015918,8.738836,-14.691148,44.376431,-134.469971
844000,0.536301,-2.138022,8.427590,-13.668248,40.254295,-135.920349
848000,0.361524,-2.173935,8.125920,-13.500308,36.239029,-137.279129
852000,0.263362,-2.262521,8.197746,-14.156796,31.628342,-138.240967
856000,0.191536,-2.319981,8.283937,-15.027026,26.116890,-139.095917
860000,0.098162,-2.432509,8.482656,-15.561378,22.910784,-139.996689
864000,-0.023942,-2.477999,8.516175,-15.927789,20.758112,-139.981415
868000,-0.184354,-2.511518,8.482656,-16.263666,20.193226,-139.630280
872000,-0.217872,-2.489970,8.566454,-16.630079,21.994753,-138.637909
876000,-0.251391,-2.489970,8.671799,-17.027025,25.674141,-137.416534
880000,-0.193930,-2.545036,8.530540,-17.973591,30.452768,-135.935623
884000,0.009577,-2.492364,8.535329,-18.859087,36.269562,-134.714249
888000,0.136469,-2.489970,8.640674,-19.943056,41.781013,-133.844009
892000,0.174777,-2.482787,8.549694,-20.599545,47.811546,-132.805847
896000,0.294487,-2.518700,8.305486,-21.591911,53.109257,-132.515762
900000,0.167594,-2.501941,8.315063,-23.011759,57.032921,-132.546310
904000,0.081403,-2.588132,8.327033,-23.805651,59.063454,-132.439438
908000,-0.083797,-2.624045,8.271967,-23.851452,58.712311,-132.790573
912000,-0.105345,-2.655170,8.367735,-23.851452,57.307728,-132.576843
916000,-0.162806,-2.669535,8.602366,-23.301834,56.010021,-132.729507
920000,-0.251391,-2.695871,8.825027,-22.706415,54.254295,-133.401260
924000,-0.301669,-2.762909,8.937555,-21.683514,52.681774,-133.935623
928000,-0.466869,-2.846706,8.939949,-19.912521,50.513836,-134.179886
932000,-0.588974,-2.817975,8.971074,-18.110994,48.803913,-134.698975
936000,-0.665588,-2.849100,9.057265,-16.110994,46.941319,-135.004318
940000,-0.790087,-3.033453,9.066842,-13.393439,46.025288,-135.111191
944000,-0.981623,-3.026271,8.892065,-10.156797,45.032921,-135.202789
948000,-1.362301,-3.081338,8.674192,-8.370538,44.208492,-135.034851
952000,-1.608904,-3.138798,8.379706,-7.210233,45.078720,-134.210419
956000,-1.987187,-3.256114,8.236053,-6.065194,45.781013,-132.622635
960000,-2.317587,-3.177106,8.063671,-5.530843,45.139790,-130.836380
964000,-2.427721,-3.205836,7.984663,-5.332370,44.193226,-129.065384
968000,-2.547431,-3.117251,7.735666,-5.622446,43.109257,-127.202789
972000,-2.770091,-3.150769,7.728483,-6.156797,40.864983,-125.462334
976000,-2.822764,-3.150769,7.510611,-6.691149,38.895515,-123.477600
980000,-2.875436,-3.134010,7.374141,-8.172065,37.552006,-121.996689
984000,-3.043030,-3.062184,7.398083,-10.049927,36.910782,-119.538673
988000,-3.033453,-2.985569,7.436390,-12.645347,36.406967,-117.782944
992000,-3.043030,-2.873042,7.659051,-14.569011,36.651241,-115.645538
996000,-2.887407,-2.863465,7.948750,-15.881988,37.536736,-113.553940
1000000,-2.841918,-2.863465,8.221688,-16.507942,39.093990,-112.103554
1004000,-2.865860,-2.791639,8.453926,-16.492674,40.971851,-110.866913
1008000,-2.853889,-2.786851,8.537724,-15.912522,43.017654,-109.492867
1012000,-3.136404,-2.820370,8.616732,-14.828553,44.208492,-108.546303
1016000,-3.483563,-2.844312,8.554482,-13.286569,43.231392,-106.989052
1020000,-3.780444,-2.901772,8.501810,-12.019393,40.437500,-105.324928
1024000,-4.127604,-2.935291,8.504205,-10.645347,36.010021,-103.615005
1028000,-4.244920,-2.880225,8.609550,-9.057561,31.506203,-101.660805
1032000,-4.505888,-2.959233,8.805874,-7.591911,26.758112,-99.294395
1036000,-4.568137,-2.870648,8.908825,-5.805653,22.452768,-97.935616
1040000,-4.558560,-2.743755,8.786720,-3.851454,19.277195,-95.538673
1044000,-4.759673,-2.667141,8.676587,-1.836186,15.613073,-92.546303
1048000,-4.891354,-2.554613,8.583213,-0.538476,11.521470,-90.332565
1052000,-4.879383,-2.516306,8.429984,-0.340003,9.506203,-87.996689
1056000,-4.946421,-2.420538,8.317456,-0.278934,8.437500,-85.202789
1060000,-4.879383,-2.379837,8.118738,-0.721682,7.139791,-81.981415
1064000,-4.807557,-2.252944,7.848193,-1.759850,5.750478,-78.851646
1068000,-4.577713,-2.281674,7.881712,-3.027026,6.300097,-76.256226
1072000,-4.601655,-2.212242,7.817069,-4.278934,6.437501,-73.889816
1076000,-4.496311,-2.190695,7.963115,-5.225499,5.918417,-71.569206
1080000,-4.388572,-2.260126,7.941567,-6.049927,4.758111,-69.492867
1084000,-4.407725,-2.193089,8.099585,-6.538477,3.719944,-67.752411
1088000,-4.496311,-2.212242,8.025364,-7.301835,1.490936,-66.073021
1092000,-4.477157,-2.185906,8.327033,-7.500309,-1.180820,-64.240959
1096000,-4.572925,-2.212242,8.329428,-7.301835,-4.585400,-62.760044
1100000,-4.817134,-2.217031,8.410830,-7.210233,-8.585401,-60.515770
1104000,-4.888960,-2.195483,8.853758,-6.507942,-11.623569,-58.592106
1108000,-5.015852,-2.217031,9.246407,-5.271301,-13.196087,-55.569202
1112000,-5.020641,-2.126051,9.442732,-3.485041,-13.058682,-52.332561
1116000,-4.824317,-2.078167,9.289502,-1.897255,-11.226622,-49.004318
1120000,-4.527435,-2.070984,9.169792,-0.599545,-9.043416,-46.195160
1124000,-4.149151,-2.042254,9.045294,1.171447,-6.280056,-44.057755
1128000,-3.998317,-1.912967,9.011775,2.270684,-4.585400,-42.363098
1132000,-3.849876,-1.845930,8.796297,2.896638,-2.005247,-40.683708
1136000,-3.914520,-1.807622,8.465898,3.766867,-1.150285,-39.523403
1140000,-3.902549,-1.831564,8.315063,4.224883,-4.264789,-38.897449
1144000,-3.948039,-1.788469,8.295909,4.820302,-4.386927,-37.691341
1148000,-4.079720,-1.795651,8.207323,5.430989,-5.302957,-36.179890
1152000,-4.041412,-1.970428,8.061277,5.568394,-7.822041,-34.866913
1156000,-4.082114,-1.577779,7.826645,5.034043,-11.394561,-34.057755
1160000,-4.029441,-1.793257,8.090008,4.392821,-15.119752,-33.279129
1164000,-4.010288,-1.723825,7.931990,4.285951,-16.020514,-31.935617
1168000,-3.991134,-1.721431,7.965509,3.430989,-17.913645,-30.760044
1172000,-3.945644,-1.726219,7.814674,2.545493,-18.035782,-29.202791
1176000,-3.883395,-1.687912,7.656657,1.659997,-15.226622,-27.294395
1180000,-3.876213,-1.620875,7.489063,-0.263667,-12.692270,-25.324930
1184000,-3.794810,-1.616086,7.809886,-1.897255,-8.096850,-22.805845
1188000,-3.615245,-1.551443,7.994239,-1.836186,-3.760972,-20.821114
1192000,-3.598485,-1.443704,8.073248,-2.553744,0.880249,-18.744778
1196000,-3.505111,-1.455675,7.910442,-2.187331,5.277195,-16.882181
1200000,-3.770868,-1.395820,7.738060,-2.019392,8.239027,-14.927984
1204000,-3.691859,-1.347936,7.733272,-2.263667,9.964218,-12.760045
1208000,-3.576937,-1.355118,7.826645,-2.431606,10.834447,-10.561572
1212000,-3.263297,-1.309628,7.694964,-2.294202,10.819180,-8.989053
1216000,-2.904167,-1.192312,7.659051,-2.904888,9.322997,-8.271495
1220000,-2.868254,-1.149217,7.675811,-2.828552,7.872615,-8.149358
1224000,-2.765303,-0.972046,7.754819,-3.164430,5.796279,-7.889815
1228000,-2.602497,-0.869095,7.723695,-3.546110,3.781013,-8.073022
1232000,-2.521094,-0.792481,7.946355,-3.362904,2.132157,-8.057755
1236000,-2.425326,-0.787692,7.984663,-2.721682,1.384066,-7.920350
1240000,-2.454057,-0.761356,7.879318,-2.645346,1.139791,-7.737144
1244000,-2.293645,-0.715866,7.850587,-2.660614,1.353531,-7.538671
1248000,-2.310405,-0.610521,7.996634,-3.133896,1.643608,-7.019587
1252000,-2.257732,-0.612916,8.008605,-2.782751,2.010020,-6.958518
1256000,-2.310405,-0.605733,7.977480,-2.782751,0.910783,-6.866915
1260000,-2.288857,-0.754174,8.106767,-2.065194,-0.570133,-6.500503
1264000,-2.154782,-0.723049,8.068460,-1.408705,-0.463263,-6.469968
1268000,-1.984793,-0.826000,8.350976,-0.965957,-0.631201,-6.744777
1272000,-1.944092,-0.945710,8.528147,-0.080461,-0.600667,-7.050121
1276000,-2.106898,-0.969652,8.626308,0.759233,-0.951812,-7.416533
1280000,-2.080561,-1.115698,8.530540,1.583661,-1.364026,-7.416533
1284000,-2.066196,-1.185130,8.465898,2.362287,-2.127385,-7.691342
1288000,-2.181118,-1.252167,8.374918,2.347020,-1.776240,-7.019587
1292000,-2.279280,-1.414973,8.365341,1.934806,-1.974713,-6.683709
1296000,-2.252944,-1.580173,8.271967,2.087478,-1.623568,-5.660808
1300000,-2.260126,-1.587356,8.248025,2.163814,-1.333492,-4.271495
1304000,-2.257732,-1.699883,8.008605,1.385188,-0.997614,-3.660808
1308000,-2.025495,-1.778892,7.996634,0.301218,-0.203721,-2.897449
1312000,-2.056619,-1.860295,8.236053,-0.278934,0.590173,-2.256228
1316000,-1.996764,-1.939303,8.183381,-0.614812,1.078722,-1.767678
1320000,-2.138022,-2.056619,8.204929,-0.767484,1.567272,-0.821113
1324000,-2.171541,-2.051831,8.128315,-1.698782,1.735211,0.232322
1328000,-2.032677,-2.164358,8.279149,-2.599545,1.964218,1.499497
1332000,-1.953669,-2.147599,8.549694,-3.469774,2.758112,2.522398
1336000,-1.905785,-2.106898,8.686164,-3.469774,2.880249,3.636902
1340000,-1.774103,-2.164358,8.911219,-2.981224,2.269562,4.736139
1344000,-1.580173,-2.128445,9.136273,-2.752217,3.063455,5.133085
1348000,-1.601721,-2.097321,9.212888,-2.553744,4.529104,5.652169
1352000,-1.630451,-2.035071,9.239224,-1.683514,5.719944,6.858276
1356000,-1.577779,-2.018312,9.277532,-0.538476,6.391699,7.926979
1360000,-1.527501,-1.900996,9.354146,0.118012,6.574905,9.331558
1364000,-1.393425,-1.833959,9.318233,1.034043,6.483303,9.850642
1368000,-1.034295,-1.723825,9.224859,1.965340,6.254295,10.171253
1372000,-0.897826,-1.647211,9.191340,3.079844,5.109257,10.125451
1376000,-0.727837,-1.565808,9.165004,4.469157,4.010020,9.392627
1380000,-0.553061,-1.498770,8.978256,5.659997,3.032921,8.614001
1384000,-0.519542,-1.462857,8.791509,5.736333,2.132157,7.743772
1388000,-0.526724,-1.395820,8.609550,5.186715,0.758111,6.690337
1392000,-0.701501,-1.383849,8.664616,4.347020,-1.364026,5.682703
1396000,-0.826000,-1.398214,8.597578,3.598928,-2.631201,5.346826
1400000,-0.991199,-1.393425,8.544906,2.743967,-4.447995,5.102551
1404000,-1.029507,-1.312023,8.552089,2.331753,-6.096850,5.056749
1408000,-0.957681,-1.371878,8.604761,1.476791,-4.753339,5.117818
1412000,-1.098939,-1.266533,8.583213,0.881371,-2.295324,6.232322
1416000,-0.962469,-1.316811,8.571242,0.652363,0.116890,7.041482
1420000,-0.876278,-1.261744,8.556877,-0.202598,2.895516,7.362093
1424000,-0.684742,-1.244985,8.465898,-0.645346,5.307730,7.270490
1428000,-0.605733,-1.240196,8.657434,-0.660614,7.093989,7.239955
1432000,-0.541090,-1.182736,8.590396,-0.278934,8.254294,6.873543
1436000,-0.548272,-1.142034,8.566454,0.270684,8.529103,6.430795
1440000,-0.442927,-1.165976,8.401254,1.110379,7.994752,5.804841
1444000,-0.416591,-1.096544,8.377312,1.843203,7.032921,4.919345
1448000,-0.481235,-1.204283,8.425196,2.850837,5.017653,3.820108
1452000,-0.351948,-1.268927,8.638280,3.324119,1.658875,2.858276
1456000,-0.418985,-1.297657,8.769960,4.087478,-1.501431,1.560566
1460000,-0.459687,-1.352724,8.698134,4.469157,-3.806774,0.751406
1464000,-0.593762,-1.381454,8.693346,5.125646,-5.486163,0.186520
1468000,-0.739808,-1.508347,8.518570,5.354653,-6.295323,-0.164625
1472000,-0.677559,-1.501164,8.564059,5.110379,-6.432728,0.155986
1476000,-0.828394,-1.508347,8.403648,4.667631,-5.822041,0.629268
1480000,-0.773327,-1.522712,8.441956,4.133279,-5.318224,0.980413
1484000,-0.763750,-1.532289,8.295909,3.446256,-4.249522,1.545299
1488000,-0.723049,-1.489193,8.310274,2.347020,-2.585400,1.636902
1492000,-0.572214,-1.465251,8.238448,1.018775,-0.692270,1.881177
1496000,-0.560243,-1.429338,8.307879,0.179081,1.109257,1.926978
1500000,-0.653617,-1.414973,8.214506,-0.675881,2.406966,1.942245
1504000,-0.763750,-1.486799,8.176199,-1.042293,2.681776,2.064383
1508000,-0.663194,-1.501164,8.200141,-1.943056,1.887883,2.064383
1512000,-0.665588,-1.462857,8.382100,-2.599545,0.529104,1.743772
1516000,-0.651223,-1.493982,8.513782,-2.416339,-0.493797,1.530032
1520000,-0.694318,-1.455675,8.700529,-1.836186,-2.249522,0.843009
1524000,-0.603339,-1.403002,8.748413,-1.256034,-3.638835,0.354459
1528000,-0.675165,-1.345541,8.815451,-0.492675,-4.386927,-0.073022
1532000,-0.866701,-1.450886,8.698134,0.805035,-4.417461,-0.210426
1536000,-0.826000,-1.400608,8.631097,1.553127,-4.310591,0.018581
1540000,-0.758962,-1.266533,8.592790,2.118012,-3.379293,-0.286762
1544000,-0.691924,-1.156399,8.590396,2.240149,-1.806774,-0.347831
1548000,-0.586579,-1.091756,8.652645,2.637096,1.216127,-0.195159
1552000,-0.629675,-1.039083,8.523358,3.278317,3.948951,-0.683709
1556000,-0.713472,-1.003170,8.094796,3.171447,6.452768,-0.622640
1560000,-0.826000,-0.962469,7.893683,2.835569,8.223760,-0.668442
1564000,-0.897826,-1.007959,7.716512,1.858470,8.697042,-0.393632
1568000,-0.804452,-0.919373,7.704541,0.652363,8.620707,-0.561571
1572000,-0.646434,-0.960075,7.723695,-0.126262,7.536737,-1.004319
1576000,-0.715866,-0.938527,7.764396,-0.965957,6.361165,-1.309663
1580000,-0.632069,-1.041478,7.869741,-1.683514,4.941318,-2.225693
1584000,-0.689530,-1.089362,7.876924,-2.095728,3.765745,-2.805846
1588000,-0.873884,-1.175553,7.999028,-2.721682,2.498570,-3.385999
1592000,-0.928950,-1.247379,8.130709,-3.561377,1.338264,-3.569205
1596000,-1.063026,-1.328782,8.190564,-4.278934,0.086356,-3.492869
1600000,-1.151611,-1.429338,8.142680,-4.843820,-1.089217,-3.126457
1604000,-1.139640,-1.575385,8.305486,-5.469774,-2.173186,-2.805846
1608000,-0.981623,-1.592144,8.513782,-5.393438,-3.073950,-2.302029
1612000,-0.957681,-1.704672,8.511387,-4.965958,-3.196087,-2.515770
1616000,-0.974440,-1.754950,8.671799,-4.736950,-4.432728,-2.607373
1620000,-0.976834,-1.810017,8.841787,-4.446874,-4.844942,-2.515770
1624000,-1.175553,-1.817199,9.038112,-3.744583,-4.997613,-2.317297
1628000,-1.288081,-1.872266,9.057265,-3.225499,-5.333491,-1.920350
1632000,-1.314417,-1.805228,9.174581,-2.660614,-5.440361,-1.294396
1636000,-1.417367,-1.872266,9.119514,-2.187331,-5.226621,-0.469968
1640000,-1.431733,-1.781286,9.033323,-2.217866,-4.035782,0.919345
1644000,-1.233014,-1.731008,8.930372,-2.370538,-3.089217,1.636902
1648000,-1.118092,-1.651999,8.836999,-3.179698,-2.051049,1.697971
1652000,-1.175553,-1.582567,8.791509,-3.561377,-0.677003,2.125452
1656000,-1.082179,-1.493982,8.655039,-3.515576,0.101623,2.415528
1660000,-1.051055,-1.333570,8.504205,-3.988858,0.620707,2.675070
1664000,-0.837971,-1.345541,8.604761,-3.988858,1.399333,2.614001
1668000,-0.718261,-1.247379,8.769960,-3.897255,2.666508,2.033848
1672000,-0.720655,-1.146823,8.894460,-3.286568,3.872615,1.484230
1676000,-0.780510,-1.139640,8.846576,-3.042293,4.193226,0.904078
1680000,-0.782904,-1.194707,8.920795,-2.736950,4.208493,0.568200
1684000,-0.744597,-1.120486,9.109938,-1.652980,4.727577,-0.027220
1688000,-0.849942,-1.192312,9.227253,-0.492675,4.926051,-0.439434
1692000,-0.957681,-1.149217,9.109938,0.698165,4.773379,-0.790579
1696000,-1.120486,-1.199495,9.011775,1.873737,4.208493,-0.958518
1700000,-1.106121,-1.161188,8.916007,2.896638,3.903150,-1.172258
1704000,-1.127669,-1.237802,8.815451,3.079844,3.475669,-0.836380
1708000,-1.175553,-1.221043,8.731653,2.972974,4.055821,-0.744777
1712000,-1.132457,-1.276109,8.669404,2.896638,4.468035,-0.439434
1716000,-0.938527,-1.362301,8.492233,3.034043,4.926051,-0.882182
1720000,-0.799663,-1.362301,8.315063,2.957707,5.261929,-1.309663
1724000,-0.893037,-1.498770,8.147469,2.545493,5.048188,-1.538671
1728000,-0.957681,-1.592144,8.360553,1.644730,3.521470,-1.660808
1732000,-1.110910,-1.663970,8.358158,1.400455,2.773379,-1.630274
1736000,-1.247379,-1.695095,8.346188,0.606562,1.307730,-1.767678
1740000,-1.410185,-1.731008,8.307879,-0.233133,-1.135018,-1.172258
1744000,-1.532289,-1.728614,8.511387,-1.118629,-2.112118,-0.210426
1748000,-1.436521,-1.778892,8.540117,-2.110996,-1.867843,0.690337
1752000,-1.510741,-1.714248,8.552089,-2.874354,-1.348759,1.774307
1756000,-1.381454,-1.707066,8.595184,-4.019392,-0.432728,2.995681
1760000,-1.161188,-1.611298,8.688558,-4.660614,0.468035,3.606368
1764000,-0.940921,-1.632846,8.877700,-5.027026,2.101623,4.049116
1768000,-0.878672,-1.625663,8.961497,-4.416339,2.926050,4.110185
1772000,-0.888249,-1.503559,9.107543,-3.439240,3.964219,3.789574
1776000,-0.926556,-1.517924,9.229648,-1.943056,5.414600,4.155986
1780000,-0.873884,-1.525106,9.179369,-0.278934,6.574905,4.140719
1784000,-0.861913,-1.441309,9.176975,1.018775,7.414600,4.003314
1788000,-0.823605,-1.352724,9.009381,1.659997,7.582539,3.713238
1792000,-0.787692,-1.290475,9.026140,2.392821,6.529104,3.285757
1796000,-0.871489,-1.316811,8.801085,3.079844,4.819180,2.781940
1800000,-0.878672,-1.264138,8.602366,3.110379,3.048188,2.400261
1804000,-0.890643,-1.261744,8.477868,3.003508,1.704676,2.049116
1808000,-0.797269,-1.199495,8.449138,2.377554,1.322997,1.881177
1812000,-0.672771,-1.235408,8.377312,2.255417,2.010020,1.514765
1816000,-0.574608,-1.216254,8.319851,1.889004,2.727577,0.827742
1820000,-0.536301,-1.242591,8.413225,1.492058,3.414600,0.278123
1824000,-0.519542,-1.216254,8.262390,1.324119,3.719944,-0.256228
1828000,-0.799663,-1.204283,8.195353,0.789768,3.490936,-0.836380
1832000,-0.995988,-1.230620,8.039729,0.621829,3.063455,-0.927984
1836000,-1.142034,-1.240196,8.157045,-0.019392,2.880249,-0.958518
1840000,-1.237802,-1.309628,8.200141,-0.538476,2.758112,-0.561571
1844000,-1.237802,-1.211466,8.099585,-0.538476,2.330631,0.079650
1848000,-1.177947,-1.211466,8.022970,-1.118629,1.506203,-0.164625
1852000,-1.048660,-1.216254,8.027759,-1.759850,0.742844,-0.225693
1856000,-0.981623,-1.225831,8.025364,-2.385804,0.025287,-0.683709
1860000,-0.945710,-1.268927,8.078036,-2.660614,-0.570133,-1.279129
1864000,-0.950498,-1.295263,8.125920,-2.721682,-1.562499,-1.645541
1868000,-1.043872,-1.417367,8.149862,-2.569010,-2.249522,-1.508136
1872000,-1.192312,-1.470040,8.274361,-2.599545,-2.753339,-1.447067
1876000,-1.209072,-1.489193,8.303091,-2.904888,-3.150285,-1.324930
1880000,-1.134852,-1.604115,8.394072,-3.256034,-3.547232,-1.111190
1884000,-1.170765,-1.582567,8.427590,-3.500308,-3.974713,-0.989052
1888000,-1.235408,-1.637634,8.638280,-3.332370,-4.585400,-0.836380
1892000,-1.211466,-1.752556,8.729259,-3.362904,-4.127385,-0.424167
1896000,-1.120486,-1.793257,9.102755,-2.950690,-1.959446,0.064383
1900000,-1.118092,-1.735796,9.157822,-2.049927,0.529104,0.690337
1904000,-1.189918,-1.745373,9.030929,-1.179698,2.437501,1.087284
1908000,-1.233014,-1.723825,9.014170,-0.080461,3.429867,1.911711
1912000,-1.173159,-1.733402,9.004593,0.408088,3.842081,2.461329
1916000,-1.230620,-1.668759,8.863335,0.621829,4.513837,2.781940
1920000,-0.998382,-1.647211,8.813056,0.850837,4.590173,3.102551
1924000,-0.888249,-1.546654,8.836999,0.896638,4.116890,3.010948
1928000,-0.802058,-1.556231,8.719683,0.759233,4.529104,2.888810
1932000,-0.610521,-1.455675,8.722076,0.652363,4.926051,2.247589
1936000,-0.727837,-1.491588,8.623915,0.591295,4.712310,1.453696
1940000,-0.766145,-1.460463,8.588001,0.438623,3.139791,0.904078
1944000,-0.912191,-1.496376,8.628703,0.301218,1.796279,0.369726
1948000,-1.051055,-1.426944,8.544906,0.347020,-0.554866,-0.011953
1952000,-1.173159,-1.479617,8.561666,0.240150,-1.654102,0.232322
1956000,-1.089362,-1.532289,8.547300,0.301218,-1.944179,0.400261
1960000,-0.976834,-1.482011,8.714894,0.637096,-1.699904,0.262856
1964000,-0.991199,-1.493982,8.705317,0.270684,-1.150285,-0.057755
1968000,-0.919373,-1.455675,8.652645,-0.004125,-0.646469,-0.347831
1972000,-1.060631,-1.455675,8.640674,-0.110996,0.147424,-0.317297
1976000,-1.221043,-1.520318,8.614338,-0.034660,0.315363,-0.027220
1980000,-1.127669,-1.491588,8.540117,-0.202598,1.246661,0.033849
1984000,-1.060631,-1.455675,8.542512,-0.156797,1.933684,-0.240961
1988000,-1.101333,-1.460463,8.664616,0.194348,2.437501,-0.073022
1992000,-1.074997,-1.426944,8.578424,0.698165,3.032921,-0.042487
1996000,-1.137246,-1.424550,8.501810,0.988241,3.277195,-0.164625
