time_us,ax,ay,az,gx,gy,gz
0,1.211466,-0.909797,8.762778,-2.965957,2.147424,-0.683709
4000,1.237802,-0.876278,8.877700,-2.584278,1.429867,-1.080655
8000,1.144428,-0.847547,8.829816,-2.065194,0.834447,-1.660808
12000,1.101333,-0.883460,9.030929,-1.454507,0.071089,-1.767678
16000,1.067814,-0.914585,8.911219,-1.027026,-0.386927,-1.905083
20000,1.060631,-0.907402,8.913613,-0.782751,-0.631201,-1.844014
24000,1.130063,-0.881066,9.006987,-0.630080,-0.799140,-2.103556
28000,1.154005,-0.866701,8.839393,-0.294202,-0.463263,-1.813480
32000,1.175553,-0.878672,8.590396,-0.004125,-0.646469,-1.935617
36000,1.122881,-0.826000,8.530540,-0.187331,-0.615934,-2.149358
40000,1.086968,-0.811634,8.494628,-0.736950,-0.371659,-2.088289
44000,1.185130,-0.861913,8.504205,-0.813286,0.071089,-2.179892
48000,1.213860,-0.814029,8.432379,-1.256034,-0.432728,-2.332564
52000,1.216254,-0.761356,8.528147,-1.576644,-1.684637,-2.469968
56000,1.182736,-0.847547,8.549694,-1.652980,-2.738072,-2.821113
60000,1.233014,-0.873884,8.736442,-1.607178,-3.608301,-2.866915
64000,1.132457,-0.854730,8.726865,-1.683514,-3.883110,-2.943251
68000,1.189918,-0.821211,8.798691,-1.973591,-3.913644,-3.263861
72000,1.187524,-0.900220,8.851364,-1.637713,-3.654102,-3.385999
76000,1.189918,-0.919373,8.990228,-1.057560,-3.470896,-3.294396
80000,1.154005,-0.914585,8.920795,-0.477408,-3.241888,-3.263861
84000,1.266533,-0.940921,8.899248,0.041676,-2.707537,-3.141724
88000,1.170765,-0.938527,8.973468,0.041676,-1.730438,-3.324930
92000,1.256956,-0.912191,8.959103,0.194348,-1.196087,-3.263861
96000,1.314417,-0.955287,9.018958,0.453890,0.284829,-3.263861
100000,1.319205,-0.933739,9.114726,0.759233,1.506203,-3.401266
104000,1.379060,-0.936133,9.004593,1.217249,2.574905,-3.187526
108000,1.424550,-0.897826,8.975863,1.400455,3.933684,-3.324930
112000,1.472434,-0.912191,8.839393,1.446256,5.093989,-3.431800
116000,1.438915,-0.883460,8.726865,1.476791,5.460402,-3.660808
120000,1.496376,-0.778116,8.609550,1.247783,4.651241,-3.752411
124000,1.534683,-0.814029,8.700529,0.743966,3.628341,-4.149358
128000,1.594538,-0.821211,8.731653,0.743966,2.574905,-4.989052
132000,1.625663,-0.811634,8.844181,0.637096,1.750478,-5.218060
136000,1.680730,-0.809240,8.877700,0.698165,1.170325,-5.721877
140000,1.759738,-0.766145,8.889671,1.003508,1.399333,-6.042487
144000,1.709460,-0.766145,8.757990,1.110379,0.987119,-6.607373
148000,1.635240,-0.780510,8.743625,0.927172,0.376432,-7.004319
152000,1.618480,-0.751779,8.674192,0.805035,0.010020,-7.416533
156000,1.616086,-0.761356,8.767567,0.331753,-0.112117,-7.233327
160000,1.582567,-0.828394,8.760384,0.011142,0.223760,-7.248594
164000,1.640028,-0.816423,8.734048,0.255417,0.437501,-7.126457
168000,1.723825,-0.816423,8.791509,-0.080461,0.941318,-7.401266
172000,1.879448,-0.715866,8.884883,-0.324736,1.399333,-7.691342
176000,1.872266,-0.756568,9.006987,-0.233133,2.040554,-7.950884
180000,1.821988,-0.782904,8.947132,0.270684,1.964218,-8.347831
184000,1.915361,-0.785298,9.009381,0.331753,1.933684,-8.912717
188000,2.015918,-0.758962,8.959103,0.652363,2.452768,-9.080656
192000,2.109292,-0.718261,8.975863,1.034043,3.261928,-9.416533
196000,2.061408,-0.739808,8.959103,1.125646,2.849715,-10.210426
200000,2.102109,-0.682347,9.100361,1.308852,2.819180,-10.546305
204000,2.276886,-0.701501,9.078813,1.598928,3.613073,-11.233328
208000,2.375048,-0.682347,8.963891,1.843203,3.872615,-11.828747
212000,2.387019,-0.679953,8.999804,2.530226,3.826814,-12.683709
216000,2.432509,-0.696713,9.045294,2.713432,3.933684,-13.294396
220000,2.427721,-0.677559,8.987833,2.805035,3.994753,-14.164625
224000,2.485181,-0.691924,8.985439,2.972974,4.086356,-14.821114
228000,2.446874,-0.754174,9.009381,3.079844,4.651241,-15.676076
232000,2.394202,-0.711078,8.980651,3.064577,4.834447,-16.103556
236000,2.480393,-0.677559,8.911219,3.034043,5.338264,-16.622639
240000,2.731784,-0.684742,9.002198,2.514959,5.933684,-17.431799
244000,2.777274,-0.663194,8.999804,2.316485,7.277195,-18.317295
248000,2.726996,-0.713472,9.105149,2.423356,8.040554,-19.462334
252000,2.784456,-0.641646,9.006987,2.576027,8.376431,-20.760044
256000,2.671929,-0.658405,9.059659,2.866104,8.895515,-21.721876
260000,2.604892,-0.648829,8.956709,3.537859,8.574905,-22.332563
264000,2.535460,-0.629675,8.892065,3.629463,8.437500,-23.187525
268000,2.506729,-0.708684,8.923190,3.980608,8.574905,-23.737143
272000,2.485181,-0.598550,8.820239,3.950073,8.544371,-24.240959
276000,2.509123,-0.639252,8.825027,4.408089,8.406966,-24.790579
280000,2.463634,-0.622492,8.640674,4.194348,7.948951,-25.630274
284000,2.561796,-0.615310,8.714894,3.904272,8.101623,-26.286762
288000,2.607286,-0.624887,8.602366,3.278317,7.735211,-26.897449
292000,2.592921,-0.608127,8.482656,2.896638,7.643608,-27.431799
296000,2.638410,-0.665588,8.403648,2.133279,8.269562,-28.500502
300000,2.614468,-0.615310,8.374918,1.568394,8.666508,-29.279127
304000,2.669535,-0.591368,8.370130,0.896638,8.590172,-30.332563
308000,2.626439,-0.567426,8.429984,0.331753,9.124523,-31.050119
312000,2.659958,-0.605733,8.317456,0.148546,9.093989,-31.996685
316000,2.595315,-0.541090,8.250419,-0.874354,7.613074,-33.172256
320000,2.516306,-0.632069,8.382100,-1.591912,5.811547,-34.454700
324000,2.425326,-0.603339,8.604761,-1.775118,5.384066,-35.080654
328000,2.355895,-0.687136,8.899248,-1.591912,4.803913,-35.752411
332000,2.248155,-0.742203,9.059659,-1.256034,4.376432,-36.363098
336000,2.178724,-0.799663,9.145850,-0.538476,4.269562,-36.637905
340000,2.133234,-0.821211,9.085996,0.041676,4.926051,-36.683708
344000,2.188300,-0.890643,9.279925,0.285951,5.918417,-37.080654
348000,2.056619,-0.845153,9.270349,0.728699,7.185593,-37.019585
352000,2.056619,-1.003170,9.191340,1.537859,7.811547,-37.218060
356000,2.111686,-0.995988,9.246407,2.484425,8.422234,-37.233326
360000,2.291251,-1.010353,9.224859,3.049310,9.979486,-37.691341
364000,2.415750,-0.972046,9.179369,3.415722,11.567271,-38.469967
368000,2.516306,-0.998382,9.107543,3.889004,12.529103,-39.202793
372000,2.511518,-0.895431,8.975863,4.072211,12.910783,-40.210426
376000,2.552219,-0.940921,8.983045,3.995875,12.635974,-41.645538
380000,2.487576,-0.909797,8.954314,4.026409,11.933683,-43.050121
384000,2.456451,-0.938527,9.028535,3.873737,11.032920,-43.813480
388000,2.499547,-0.991199,9.093178,4.545493,10.071088,-44.775311
392000,2.432509,-1.065420,9.188946,4.713432,10.162691,-45.630272
396000,2.516306,-1.051055,9.045294,5.232516,11.353531,-46.576839
400000,2.451663,-1.067814,8.781932,5.476791,11.826814,-47.248592
404000,2.434903,-1.149217,8.844181,5.232516,12.086355,-48.011951
408000,2.408567,-1.132457,8.846576,4.927173,12.758111,-48.943249
412000,2.398990,-1.115698,8.690952,4.896638,13.017653,-49.279129
416000,2.365471,-1.163582,8.671799,5.415722,12.681775,-49.966152
420000,2.535460,-1.132457,8.731653,5.537859,12.605439,-50.989052
424000,2.561796,-1.127669,8.815451,5.537859,13.093989,-51.920349
428000,2.535460,-1.113304,8.894460,5.507325,13.353531,-52.653175
432000,2.638410,-1.098939,8.980651,5.919539,13.918416,-53.279129
436000,2.638410,-1.031901,8.851364,6.270684,14.773378,-54.485233
440000,2.734178,-1.000776,8.846576,6.530226,15.414599,-55.798210
444000,2.748544,-1.015141,8.779537,6.576027,15.796280,-57.050121
448000,2.746149,-0.993594,8.614338,6.545493,15.658875,-58.531036
452000,2.624045,-0.955287,8.734048,6.637096,15.490935,-59.828747
456000,2.533065,-0.972046,8.789114,6.805035,15.506203,-60.927982
460000,2.315193,-0.905008,8.528147,6.850837,15.613073,-61.630272
464000,2.159570,-0.972046,8.535329,7.324119,15.170325,-62.179890
468000,2.035071,-0.969652,8.458714,7.705798,14.177958,-62.698975
472000,1.948880,-0.979228,8.439561,7.201982,13.185592,-63.095921
476000,1.953669,-1.005565,8.566454,7.201982,12.605439,-63.385998
480000,1.778892,-1.010353,8.425196,6.805035,12.254294,-63.691341
484000,1.817199,-0.984017,8.300697,5.980608,11.277195,-64.073021
488000,1.848324,-1.043872,8.427590,5.186715,10.895515,-64.118828
492000,1.843535,-1.063026,8.497022,4.927173,10.849714,-64.424171
496000,1.778892,-1.098939,8.528147,4.514959,10.971851,-64.485237
500000,1.817199,-1.122881,8.537724,4.179081,11.124523,-64.546303
504000,2.003947,-1.082179,8.604761,3.995875,12.223760,-64.500504
508000,2.080561,-1.120486,8.791509,3.659997,12.971851,-65.065384
512000,2.272097,-1.156399,8.906430,3.782134,13.704676,-66.027222
516000,2.499547,-1.209072,9.076419,4.118012,15.658875,-66.912712
520000,2.475605,-1.266533,8.892065,4.011142,17.460402,-68.118820
524000,2.410961,-1.367089,9.062054,3.843203,18.697042,-69.508133
528000,2.387019,-1.470040,9.188946,4.163814,20.468035,-70.179893
532000,2.262521,-1.620875,9.141062,4.499691,21.414600,-71.019585
536000,2.032677,-1.687912,9.112331,5.140913,21.277195,-71.462334
540000,1.941698,-1.754950,9.042900,5.766867,20.987120,-71.889816
544000,1.951274,-1.719037,9.030929,6.530226,20.819180,-72.439430
548000,1.903390,-1.783680,8.959103,6.988241,20.284828,-72.912712
552000,1.915361,-1.666364,8.793902,7.400455,19.002386,-73.645538
556000,1.924938,-1.592144,8.810662,8.133280,18.529104,-74.500504
560000,1.884237,-1.438915,8.640674,8.408089,17.613073,-75.844017
564000,1.829170,-1.371878,8.444349,7.889005,16.651241,-76.989052
568000,1.740585,-1.326388,8.451532,6.438623,17.536737,-78.011955
572000,1.922544,-1.285686,8.645462,5.476791,19.429867,-79.141724
576000,1.544260,-1.364695,8.844181,7.064577,18.010019,-79.844017
580000,1.599327,-1.319205,8.664616,7.492058,17.521469,-80.485237
584000,1.474828,-1.295263,8.461109,6.056943,19.674141,-81.355461
588000,1.331176,-1.371878,8.518570,4.850837,21.048187,-81.828743
592000,1.225831,-1.381454,8.556877,4.392821,21.307730,-81.798210
596000,1.204283,-1.474828,8.678981,3.950073,22.529104,-81.859283
600000,1.168370,-1.472434,8.801085,3.675264,23.490936,-81.782944
604000,1.163582,-1.395820,8.844181,3.736333,24.468035,-81.920349
608000,1.237802,-1.438915,8.884883,3.446256,25.613073,-81.584473
612000,1.333570,-1.491588,8.995016,3.293585,27.628340,-82.073021
616000,1.472434,-1.448492,9.038112,3.934806,29.490936,-83.065384
620000,1.431733,-1.534683,8.875306,4.576027,30.300097,-83.737144
624000,1.280898,-1.675941,8.856153,5.400455,30.498569,-84.469971
628000,1.151611,-1.754950,8.949526,6.469157,30.559637,-85.111191
632000,1.115698,-1.750161,8.844181,7.217249,30.284828,-85.508133
636000,0.921768,-1.862689,8.916007,8.301218,28.834448,-86.118820
640000,0.890643,-1.929727,8.731653,9.385188,26.803913,-86.134087
644000,0.794875,-2.006341,8.765172,10.118012,25.322996,-86.576836
648000,0.835576,-1.989582,8.604761,10.484425,23.933683,-86.927986
652000,0.909797,-1.936909,8.695741,11.171448,22.468035,-87.172256
656000,0.888249,-1.982399,8.544906,12.331753,21.216125,-88.073021
660000,0.768539,-1.994370,8.389283,12.927173,20.147425,-88.760040
664000,0.462081,-1.860295,8.276755,13.018775,19.063456,-89.141724
668000,0.416591,-1.939303,8.176199,12.774501,19.506203,-88.912712
672000,0.301669,-1.939303,7.927202,12.453890,20.941317,-88.851646
676000,0.165200,-1.903390,7.742848,11.827936,21.307730,-88.698975
680000,0.021548,-1.855506,7.656657,10.927173,21.872616,-88.332565
684000,-0.186748,-1.723825,7.527370,10.285952,22.116890,-88.179893
688000,-0.395043,-1.709460,7.350199,9.415722,21.506203,-87.630272
692000,-0.605733,-1.584962,7.383718,8.209616,20.468035,-86.943253
696000,-0.811634,-1.596933,7.400477,7.003509,20.116890,-86.042488
700000,-0.902614,-1.587356,7.287950,5.812669,20.147425,-84.805847
704000,-0.960075,-1.505953,7.378930,4.484425,19.674141,-83.844017
708000,-1.101333,-1.505953,7.510611,3.400455,19.216125,-82.607368
712000,-1.130063,-1.486799,7.723695,2.011142,19.704676,-81.202789
716000,-1.206678,-1.424550,7.704541,0.698165,18.361164,-80.057755
720000,-0.945710,-1.391031,7.982268,-0.416339,19.368797,-78.836380
724000,-0.852336,-1.450886,8.068460,-1.179698,21.261929,-77.828743
728000,-0.751779,-1.453280,8.020576,-1.515576,22.834448,-77.019585
732000,-0.814029,-1.398214,8.111555,-1.683514,23.475668,-76.454704
736000,-0.689530,-1.429338,8.183381,-1.271301,24.132156,-75.996689
740000,-0.644040,-1.505953,8.350976,-0.996492,24.727577,-75.828743
744000,-0.509965,-1.498770,8.480263,-0.874354,23.689409,-75.966148
748000,-0.538695,-1.608904,8.604761,-0.172064,22.758112,-76.531036
752000,-0.663194,-1.723825,8.710106,1.110379,20.666508,-76.729507
756000,-0.749385,-1.733402,8.772355,2.179081,18.345898,-77.218056
760000,-0.869095,-1.786075,8.779537,2.972974,15.719944,-77.340195
764000,-0.998382,-1.855506,8.825027,3.415722,13.414599,-77.370728
768000,-1.173159,-1.881842,8.829816,4.285951,11.445134,-77.294395
772000,-1.146823,-1.898602,8.834604,4.942440,9.582539,-77.004318
776000,-1.063026,-1.987187,8.796297,5.461524,9.139791,-76.760040
780000,-1.201889,-1.980005,8.769960,5.904272,9.093989,-76.439430
784000,-1.204283,-2.063802,8.676587,6.469157,9.674142,-75.844017
788000,-1.194707,-2.001553,8.552089,6.911905,10.513836,-75.386002
792000,-1.180341,-2.042254,8.506598,6.728699,11.246661,-74.775314
796000,-1.209072,-1.989582,8.406042,7.034043,12.193226,-74.256226
800000,-1.247379,-1.927332,8.408437,6.881371,12.025287,-74.027222
804000,-1.063026,-2.042254,8.465898,6.453890,12.345898,-73.508133
808000,-0.924162,-1.898602,8.370130,5.644730,13.231394,-73.553940
812000,-0.816423,-1.893813,8.286332,4.759233,14.239027,-73.782944
816000,-0.878672,-1.845930,8.056489,4.133279,13.857347,-74.363098
820000,-0.885855,-1.750161,8.085219,3.110379,14.071088,-74.866913
824000,-0.952892,-1.745373,8.013393,1.782134,14.406966,-75.340195
828000,-0.933739,-1.699883,8.013393,0.591295,14.055821,-75.737144
832000,-0.979228,-1.666364,8.073248,0.179081,13.231394,-76.714241
836000,-1.115698,-1.553837,8.054094,0.163814,12.544371,-77.111191
840000,-1.233014,-1.539472,8.118738,-0.110996,12.086355,-77.492867
844000,-1.460463,-1.453280,8.066066,-0.401072,11.735210,-77.645538
848000,-1.601721,-1.453280,8.094796,-0.736950,12.132157,-77.492867
852000,-1.862689,-1.479617,8.073248,-1.057560,12.177958,-76.927986
856000,-2.027889,-1.458069,8.015787,-1.103362,11.567271,-75.767677
860000,-2.118869,-1.414973,7.970297,-1.362904,10.971851,-74.821114
864000,-2.188300,-1.508347,7.941567,-2.110996,10.544371,-73.462334
868000,-2.214637,-1.446098,7.908048,-2.675881,10.422234,-71.889816
872000,-2.207454,-1.443704,7.881712,-3.561377,10.544371,-70.531036
876000,-2.161964,-1.458069,7.946355,-4.462141,10.864982,-69.309662
880000,-2.197877,-1.532289,8.006210,-4.385805,11.170325,-67.752411
884000,-2.133234,-1.441309,7.941567,-4.553743,10.468035,-66.744774
888000,-2.047042,-1.472434,7.999028,-4.996491,9.811546,-65.508133
892000,-1.891419,-1.470040,8.274361,-5.225499,10.345898,-64.469971
896000,-1.807622,-1.474828,8.264784,-5.591911,11.048187,-63.859280
900000,-1.707066,-1.470040,8.180987,-6.141530,11.216126,-63.187527
904000,-1.647211,-1.398214,8.180987,-6.019393,11.506203,-63.065388
908000,-1.541866,-1.388637,8.283937,-6.340003,11.628340,-62.668442
912000,-1.529895,-1.419762,8.257602,-7.027026,12.071088,-62.347832
916000,-1.465251,-1.424550,8.339005,-7.591911,13.765745,-62.439434
920000,-1.572991,-1.419762,8.422802,-7.637713,14.147424,-62.286762
924000,-1.546654,-1.474828,8.525752,-7.973591,14.422234,-61.630272
928000,-1.596933,-1.460463,8.734048,-8.141530,16.513836,-60.943249
932000,-1.666364,-1.388637,8.717288,-8.110995,19.368797,-59.905083
936000,-1.757344,-1.422156,8.592790,-8.095729,20.819180,-59.187527
940000,-1.733402,-1.453280,8.552089,-7.973591,21.552004,-58.164623
944000,-1.623269,-1.386243,8.643068,-8.385805,23.017653,-57.462334
948000,-1.596933,-1.391031,8.652645,-8.202599,24.529104,-56.943249
952000,-1.601721,-1.304840,8.681376,-8.202599,24.803913,-56.469967
956000,-1.484405,-1.323994,8.702923,-7.317102,25.414600,-55.950882
960000,-1.228225,-1.309628,8.566454,-6.843820,26.773378,-56.363098
964000,-1.211466,-1.213860,8.549694,-6.416339,27.246660,-56.989052
968000,-1.395820,-1.290475,8.350976,-5.790385,25.887882,-57.813480
972000,-1.472434,-1.221043,8.271967,-5.011759,23.948952,-58.286762
976000,-1.685518,-1.302446,8.228871,-4.904889,21.613073,-58.546303
980000,-1.905785,-1.271321,7.991845,-4.798018,19.277195,-58.469967
984000,-2.099715,-1.300052,7.915231,-5.027026,17.017653,-58.393631
988000,-2.243367,-1.335965,7.869741,-5.042294,15.216126,-57.798210
992000,-2.375048,-1.362301,7.728483,-4.920156,13.216126,-56.515770
996000,-2.595315,-1.326388,7.706935,-5.561378,11.826814,-55.279129
1000000,-2.705448,-1.328782,7.644686,-6.416339,10.895515,-53.721874
1004000,-2.762909,-1.295263,7.675811,-7.332370,10.361164,-52.088287
1008000,-2.695871,-1.244985,7.694964,-7.912522,11.078722,-50.134090
1012000,-2.643199,-1.175553,7.620744,-8.752217,12.086355,-48.622639
1016000,-2.487576,-1.235408,7.544129,-9.057561,14.361164,-46.729511
1020000,-2.442086,-1.182736,7.393295,-9.958323,15.628340,-45.080654
1024000,-2.389413,-1.115698,7.359776,-11.591911,17.353531,-43.202793
1028000,-2.118869,-1.055843,7.326257,-14.110995,19.429867,-41.782944
1032000,-1.917756,-0.998382,7.568071,-16.507942,20.971851,-40.668442
1036000,-1.778892,-1.019930,7.572860,-18.553743,22.116890,-39.935616
1040000,-1.632846,-1.106121,7.647080,-19.744583,21.933683,-39.431801
1044000,-1.529895,-1.142034,7.891289,-20.645346,21.567272,-39.370731
1048000,-1.403002,-1.182736,8.274361,-20.843819,21.200859,-39.340199
1052000,-1.355118,-1.189918,8.219295,-20.859087,20.635973,-39.615005
1056000,-1.486799,-1.137246,8.425196,-20.752216,21.261929,-39.889816
1060000,-1.587356,-1.230620,8.549694,-20.187330,20.147425,-39.950882
1064000,-1.520318,-1.259350,8.841787,-18.965956,19.307730,-39.798210
1068000,-1.541866,-1.271321,8.836999,-17.393438,19.322996,-39.752411
1072000,-1.580173,-1.319205,8.956709,-15.943057,18.422234,-39.370731
1076000,-1.683124,-1.225831,8.920795,-14.553744,17.826813,-39.126457
1080000,-1.704672,-1.261744,8.875306,-13.622445,17.261929,-39.019585
1084000,-1.771709,-1.276109,8.975863,-12.370538,16.681776,-38.195160
1088000,-1.855506,-1.331176,8.925584,-10.874354,16.819180,-37.416534
1092000,-1.719037,-1.244985,8.671799,-9.866721,17.460402,-36.760044
1096000,-1.572991,-1.204283,8.621520,-9.698782,18.116890,-36.225693
1100000,-1.268927,-1.259350,8.568848,-9.622446,18.727577,-36.485233
1104000,-1.046266,-1.158794,8.475474,-9.378171,19.002386,-37.126457
1108000,-1.161188,-1.142034,8.310274,-9.271301,18.987120,-37.844013
1112000,-1.173159,-1.144428,8.279149,-9.286569,18.391699,-38.744778
1116000,-1.395820,-1.154005,8.202535,-9.500309,17.796280,-38.805847
1120000,-1.549049,-1.237802,8.233660,-9.805653,17.170324,-39.248592
1124000,-1.635240,-1.261744,8.075643,-10.630079,16.666508,-39.279129
1128000,-1.754950,-1.326388,8.099585,-11.439240,15.918417,-38.668442
1132000,-1.968034,-1.345541,7.982268,-12.263667,14.544371,-38.225693
1136000,-2.018312,-1.340753,8.135497,-13.103362,12.651241,-37.309662
1140000,-1.968034,-1.436521,8.281544,-13.286569,11.032920,-36.500504
1144000,-2.008735,-1.467646,8.396465,-13.118629,10.483302,-36.057755
1148000,-1.963245,-1.541866,8.327033,-12.798018,9.765745,-35.431801
1152000,-2.118869,-1.529895,8.303091,-12.156796,8.116890,-34.821114
1156000,-2.161964,-1.558625,8.231265,-11.271301,6.910783,-33.950882
1160000,-2.305616,-1.584962,8.202535,-10.828553,5.536737,-33.019585
1164000,-2.300828,-1.661576,8.305486,-10.431606,3.750478,-32.179893
1168000,-2.274492,-1.685518,8.245630,-10.172065,1.704676,-31.202791
1172000,-2.334347,-1.742979,8.413225,-10.614813,0.315363,-30.164623
1176000,-2.348712,-1.723825,8.540117,-10.798018,-0.692270,-29.095922
1180000,-2.296039,-1.810017,8.513782,-10.798018,-1.318224,-28.088287
1184000,-2.217031,-1.798046,8.501810,-10.813286,-1.501431,-27.050119
1188000,-2.126051,-1.874660,8.645462,-11.286569,-1.623568,-26.179892
1192000,-1.982399,-1.889025,8.722076,-11.469774,-1.302957,-25.538670
1196000,-1.879448,-1.987187,9.023746,-11.133897,-0.753339,-25.095922
1200000,-1.939303,-1.956063,9.090784,-10.584278,-0.264789,-24.592106
1204000,-1.893813,-2.073379,9.088389,-10.156797,0.177959,-23.706610
1208000,-1.900996,-2.059013,9.244013,-10.080462,1.017653,-22.729509
1212000,-1.659182,-2.082955,9.291897,-9.668247,2.193226,-22.347830
1216000,-1.649605,-2.126051,9.279925,-9.454507,2.483302,-21.966150
1220000,-1.630451,-2.087744,9.334992,-9.072827,2.422234,-21.599739
1224000,-1.431733,-1.994370,9.414001,-9.042294,2.208493,-21.981419
1228000,-1.300052,-2.008735,9.519346,-8.752217,2.742844,-22.256227
1232000,-1.376666,-2.001553,9.459491,-8.095729,2.498570,-22.439434
1236000,-1.367089,-1.982399,9.445126,-7.622446,2.208493,-22.515770
1240000,-1.460463,-2.037466,9.323022,-7.515575,2.300096,-22.561571
1244000,-1.522712,-2.037466,9.600749,-7.454507,2.941318,-22.149357
1248000,-1.683124,-2.044648,9.588778,-7.256034,3.765745,-21.615005
1252000,-1.697489,-2.078167,9.416395,-6.630079,4.437501,-20.500502
1256000,-1.843535,-2.018312,9.244013,-6.431606,4.803913,-19.676075
1260000,-1.855506,-2.015918,9.284714,-6.034659,5.246661,-18.622639
1264000,-1.946486,-1.951274,9.272743,-5.790385,5.292463,-17.660807
1268000,-1.886631,-1.934515,9.435549,-5.194965,5.399333,-16.698975
1272000,-1.855506,-1.884237,9.550470,-4.675881,6.666509,-15.218060
1276000,-1.572991,-1.850718,9.591172,-3.729316,7.842081,-14.683709
1280000,-1.458069,-1.826776,9.528923,-2.248400,9.338264,-14.057755
1284000,-1.493982,-1.855506,9.519346,-1.027026,10.254294,-14.225694
1288000,-1.529895,-1.862689,9.442732,0.056943,10.681775,-13.996686
1292000,-1.596933,-1.802834,9.284714,1.217249,10.529103,-13.477602
1296000,-1.608904,-1.798046,8.992621,2.026409,9.460402,-13.324930
1300000,-1.666364,-1.776498,8.803479,2.377554,8.513836,-12.943251
1304000,-1.668759,-1.702277,8.726865,2.362287,7.002387,-12.637908
1308000,-1.556231,-1.656788,8.820239,2.347020,6.193226,-12.866915
1312000,-1.558625,-1.699883,8.734048,2.148547,5.521471,-12.775312
1316000,-1.596933,-1.675941,8.743625,1.690531,4.987119,-12.760045
1320000,-1.616086,-1.656788,8.681376,1.293585,4.406967,-12.622641
1324000,-1.757344,-1.702277,8.655039,1.156180,3.918417,-11.920350
1328000,-1.752556,-1.742979,8.657434,0.911905,3.689409,-11.263862
1332000,-1.728614,-1.685518,8.671799,0.240150,4.101623,-10.332564
1336000,-1.572991,-1.630451,8.786720,-0.675881,4.376432,-9.813480
1340000,-1.376666,-1.644817,8.872911,-1.378171,6.284829,-9.691342
1344000,-1.302446,-1.577779,8.995016,-1.500308,7.994752,-9.553938
1348000,-1.213860,-1.594538,8.930372,-1.362904,8.666508,-9.981419
1352000,-1.106121,-1.659182,8.925584,-1.027026,9.567271,-10.103557
1356000,-1.230620,-1.714248,9.074024,-0.721682,9.872615,-10.256228
1360000,-1.312023,-1.740585,9.263166,-0.309469,9.857347,-10.240961
1364000,-1.434127,-1.860295,9.409213,0.560760,9.979486,-10.011953
1368000,-1.510741,-1.807622,9.296685,1.492058,9.643607,-10.042488
1372000,-1.592144,-1.843535,9.315839,2.881371,8.895515,-9.920350
1376000,-1.709460,-1.814805,9.169792,3.919539,7.842081,-9.553938
1380000,-1.671153,-1.855506,9.179369,4.698165,7.032921,-8.973785
1384000,-1.544260,-1.826776,8.882488,5.415722,6.544371,-8.576838
1388000,-1.563414,-1.731008,8.700529,5.690531,5.521471,-8.515770
1392000,-1.458069,-1.731008,8.700529,6.270684,4.803913,-8.561572
1396000,-1.410185,-1.774103,8.549694,6.850837,4.025287,-8.683709
1400000,-1.335965,-1.680730,8.540117,6.972974,4.208493,-8.790579
1404000,-1.309628,-1.671153,8.688558,6.438623,4.635974,-9.248594
1408000,-1.412579,-1.644817,8.652645,6.163814,5.811547,-9.324930
1412000,-1.460463,-1.642422,8.494628,6.499691,6.605440,-9.263862
1416000,-1.604115,-1.685518,8.422802,6.774501,6.483303,-9.141725
1420000,-1.640028,-1.611298,8.231265,6.820302,6.376432,-9.187526
1424000,-1.783680,-1.608904,8.152257,6.927173,5.933684,-8.882182
1428000,-1.936909,-1.611298,8.010999,6.820302,4.742845,-8.454701
1432000,-1.991976,-1.683124,7.927202,7.110379,3.628341,-8.011953
1436000,-2.020706,-1.668759,7.922413,7.247783,2.834447,-7.355464
1440000,-2.102109,-1.781286,7.742848,7.140913,1.857348,-6.546304
1444000,-2.207454,-1.721431,7.560889,6.896638,0.849715,-5.630273
1448000,-2.173935,-1.702277,7.462727,5.889005,-0.020514,-4.729510
1452000,-2.025495,-1.635240,7.469909,4.560760,0.162692,-3.737144
1456000,-1.810017,-1.594538,7.460332,3.110379,0.147424,-3.233327
1460000,-1.814805,-1.594538,7.534553,1.889004,-0.188453,-2.821113
1464000,-1.771709,-1.561020,7.603985,1.049310,0.300096,-2.347831
1468000,-1.697489,-1.572991,7.704541,0.072211,0.773379,-1.676075
1472000,-1.750161,-1.594538,7.661446,-0.996492,1.536737,-1.050121
1476000,-1.702277,-1.584962,7.831434,-1.485041,1.903150,-0.729510
1480000,-1.723825,-1.541866,7.953538,-2.004125,2.162692,0.003314
1484000,-1.711854,-1.534683,8.092402,-2.477408,1.903150,0.781940
1488000,-1.697489,-1.584962,8.195353,-2.401072,2.040554,1.728505
1492000,-1.680730,-1.556231,8.252813,-2.446873,1.979486,2.201787
1496000,-1.493982,-1.498770,8.377312,-2.217866,1.857348,3.010948
1500000,-1.314417,-1.594538,8.425196,-1.714049,2.315363,3.178887
1504000,-1.094150,-1.517924,8.336611,-1.439240,2.406966,2.949879
1508000,-0.981623,-1.491588,8.300697,-0.996492,1.689409,2.033848
1512000,-0.981623,-1.515530,8.377312,-1.057560,1.292463,1.423162
1516000,-0.981623,-1.601721,8.492233,-0.798018,0.269562,0.598734
1520000,-0.995988,-1.663970,8.480263,-0.278934,-0.478530,-0.378365
1524000,-1.106121,-1.589750,8.336611,0.453890,-1.959446,-1.095922
1528000,-1.201889,-1.683124,8.453926,1.140913,-3.272423,-1.630274
1532000,-1.393425,-1.776498,8.439561,1.644730,-4.661736,-1.691342
1536000,-1.498770,-1.867477,8.398860,1.766867,-5.531965,-1.569205
1540000,-1.553837,-1.896208,8.372523,1.553127,-6.432728,-1.004319
1544000,-1.594538,-1.841141,8.379706,1.461524,-6.982347,-0.668442
1548000,-1.608904,-1.817199,8.384495,0.988241,-7.318224,-0.027220
1552000,-1.549049,-1.802834,8.360553,0.392821,-7.073949,0.537665
1556000,-1.462857,-1.790863,8.315063,-0.004125,-5.455629,1.285757
1560000,-1.319205,-1.769315,8.382100,-0.599545,-3.119751,1.652169
1564000,-1.233014,-1.735796,8.346188,-1.256034,-0.677003,2.247589
1568000,-1.173159,-1.647211,8.307879,-1.622446,1.200860,2.247589
1572000,-1.295263,-1.640028,8.300697,-1.881988,2.666508,2.476597
1576000,-1.312023,-1.651999,8.192958,-1.943056,3.414600,2.858276
1580000,-1.163582,-1.661576,8.061277,-2.095728,3.429867,2.736139
1584000,-1.264138,-1.623269,8.022970,-2.660614,3.399333,2.736139
1588000,-1.256956,-1.735796,8.145074,-3.301835,2.651241,2.797207
1592000,-1.352724,-1.594538,8.142680,-3.668247,1.078722,2.675070
1596000,-1.249773,-1.695095,8.180987,-4.065194,-0.554866,2.491864
1600000,-1.323994,-1.666364,8.252813,-4.294202,-2.325858,2.400261
1604000,-1.359907,-1.747767,8.250419,-4.416339,-3.822041,2.461329
1608000,-1.395820,-1.810017,8.283937,-4.736950,-4.814407,2.522398
1612000,-1.362301,-1.879448,8.374918,-4.630079,-5.501431,2.827742
1616000,-1.276109,-1.829170,8.456321,-4.553743,-5.211354,2.827742
1620000,-1.204283,-1.802834,8.614338,-4.309469,-4.600667,2.904078
1624000,-1.216254,-1.769315,8.588001,-3.912522,-3.440362,3.072016
1628000,-1.156399,-1.786075,8.623915,-3.683514,-2.066316,3.255223
1632000,-1.194707,-1.752556,8.611943,-3.194965,-0.264789,3.514765
1636000,-1.218649,-1.699883,8.734048,-2.828552,0.681776,4.003314
1640000,-1.175553,-1.750161,8.722076,-2.721682,0.834447,4.278123
1644000,-1.036689,-1.685518,8.889671,-2.492675,1.735211,4.323925
1648000,-0.921768,-1.661576,8.896853,-2.049927,2.926050,4.354459
1652000,-0.907402,-1.601721,8.918402,-1.836186,2.941318,4.079650
1656000,-0.861913,-1.601721,8.985439,-1.378171,3.109257,3.530032
1660000,-0.928950,-1.611298,8.954314,-0.965957,2.941318,3.301024
1664000,-1.048660,-1.582567,8.947132,-0.172064,2.147424,3.331558
1668000,-0.945710,-1.675941,8.822633,0.240150,1.093989,3.148352
1672000,-0.945710,-1.651999,8.836999,0.560760,0.040554,3.148352
1676000,-0.981623,-1.606509,8.815451,1.140913,-0.906011,3.194154
1680000,-0.962469,-1.661576,8.722076,1.705798,-1.623568,2.980413
1684000,-0.881066,-1.632846,8.719683,1.736333,-2.524331,2.812474
1688000,-0.986411,-1.668759,8.576031,1.797401,-3.287690,2.873543
1692000,-0.921768,-1.647211,8.664616,1.507325,-4.173186,2.659803
1696000,-0.907402,-1.601721,8.628703,1.034043,-4.936545,2.491864
1700000,-0.890643,-1.599327,8.463503,0.453890,-4.890743,2.568200
1704000,-0.895431,-1.546654,8.573636,-0.462140,-4.982347,2.537665
1708000,-0.857124,-1.563414,8.530540,-1.500308,-4.218988,2.522398
1712000,-0.835576,-1.527501,8.633492,-1.805652,-2.906011,2.873543
1716000,-0.708684,-1.561020,8.626308,-2.324736,-1.501431,3.026215
1720000,-0.725443,-1.537078,8.547300,-2.156797,-0.570133,2.537665
1724000,-0.713472,-1.596933,8.599973,-1.927789,0.422234,2.507131
1728000,-0.737414,-1.553837,8.686164,-1.698782,0.666508,2.049116
1732000,-0.857124,-1.596933,8.722076,-1.546110,0.910783,1.865910
1736000,-0.916979,-1.584962,8.559271,-1.179698,0.819180,2.110184
1740000,-1.036689,-1.563414,8.556877,-1.454507,0.559638,2.140719
1744000,-0.952892,-1.565808,8.458714,-1.576644,0.208493,2.522398
1748000,-1.007959,-1.515530,8.556877,-1.714049,0.071089,2.736139
1752000,-0.900220,-1.501164,8.547300,-2.202598,-0.142652,2.614001
1756000,-0.840365,-1.482011,8.542512,-2.294202,-0.768606,2.797207
1760000,-0.859518,-1.534683,8.532935,-2.477408,-0.020514,2.522398
1764000,-0.792481,-1.534683,8.413225,-2.675881,0.315363,2.537665
1768000,-0.895431,-1.570596,8.358158,-2.889621,0.406966,2.522398
1772000,-0.938527,-1.592144,8.243237,-2.950690,0.834447,2.461329
1776000,-0.849942,-1.618480,8.243237,-2.996492,0.559638,2.659803
1780000,-0.878672,-1.599327,8.171411,-3.103362,-0.005247,2.186520
1784000,-0.519542,-1.656788,8.271967,-2.965957,-0.417461,1.713238
1788000,-0.337582,-1.675941,8.508993,-2.645346,-1.379293,0.751406
1792000,-0.440533,-1.673547,8.652645,-1.775118,-1.837308,-0.515770
1796000,-0.502782,-1.663970,8.872911,-0.385804,-2.936545,-1.279129
1800000,-0.730232,-1.709460,8.796297,0.728699,-4.295324,-1.798213
1804000,-0.960075,-1.692701,8.779537,1.751600,-5.715171,-2.179892
1808000,-1.144428,-1.728614,8.765172,2.453890,-7.104484,-1.828747
1812000,-1.189918,-1.759738,8.640674,2.896638,-7.760972,-1.462335
1816000,-1.201889,-1.733402,8.549694,3.095111,-8.615934,-0.683709
1820000,-1.194707,-1.754950,8.391677,3.354653,-8.127385,0.186520
1824000,-0.991199,-1.783680,8.140285,3.278317,-7.272423,0.659803
1828000,-0.873884,-1.656788,8.183381,2.224883,-5.654102,0.995681
1832000,-0.667982,-1.661576,8.185776,1.522592,-3.898377,1.041482
1836000,-0.658405,-1.613692,8.164227,0.453890,-2.203721,0.461329
1840000,-0.715866,-1.630451,8.180987,-0.294202,-2.127385,0.155986
1844000,-0.871489,-1.709460,8.360553,-1.011759,-2.249522,-0.042487
1848000,-1.029507,-1.716643,8.480263,-1.408705,-2.218988,0.217055
1852000,-1.146823,-1.687912,8.571242,-1.622446,-1.608301,0.690337
1856000,-1.115698,-1.656788,8.801085,-1.729316,-0.799140,0.858276
1860000,-1.084573,-1.673547,8.719683,-1.897255,0.071089,1.362093
1864000,-0.974440,-1.661576,8.647857,-1.591912,1.002386,1.545299
1868000,-0.928950,-1.654393,8.559271,-1.668247,1.429867,1.514765
1872000,-0.833182,-1.671153,8.583213,-1.683514,1.872615,1.362093
1876000,-0.792481,-1.721431,8.549694,-1.851454,1.887883,1.209421
1880000,-0.888249,-1.714248,8.532935,-1.714049,1.719944,0.980413
1884000,-0.897826,-1.680730,8.805874,-1.530843,1.567272,0.827742
1888000,-0.976834,-1.738190,8.949526,-0.828552,1.689409,0.888810
1892000,-1.122881,-1.759738,8.947132,-0.080461,1.887883,1.072016
1896000,-1.276109,-1.810017,8.916007,0.972974,2.406966,1.453696
1900000,-1.292869,-1.769315,8.808268,2.087478,2.513837,2.079650
1904000,-1.371878,-1.745373,8.540117,1.919539,1.353531,2.614001
1908000,-1.235408,-1.774103,8.343793,1.369921,0.239028,2.949879
1912000,-1.142034,-1.750161,8.413225,0.713432,-0.646469,3.331558
1916000,-1.007959,-1.673547,8.322245,-0.034660,-1.654102,3.285757
1920000,-0.890643,-1.608904,8.470686,-0.507942,-2.112118,3.072016
1924000,-0.768539,-1.568202,8.403648,-1.210232,-1.699904,2.598734
1928000,-0.804452,-1.587356,8.413225,-1.317102,-0.890743,2.232322
1932000,-0.852336,-1.529895,8.456321,-1.820919,-0.295324,2.278123
1936000,-0.957681,-1.534683,8.396465,-2.187331,0.376432,2.598734
1940000,-1.058237,-1.515530,8.396465,-2.874354,0.513837,2.934612
1944000,-1.053449,-1.510741,8.444349,-3.210232,0.345898,3.209421
1948000,-1.027112,-1.477222,8.451532,-3.286568,0.071089,3.377360
1952000,-0.964863,-1.450886,8.511387,-3.210232,-0.127385,3.407894
1956000,-0.849942,-1.407791,8.564059,-3.027026,-0.310591,3.362093
1960000,-0.773327,-1.501164,8.729259,-2.782751,0.208493,3.117818
1964000,-0.672771,-1.424550,8.674192,-2.614812,0.422234,2.598734
1968000,-0.521936,-1.424550,8.693346,-2.416339,0.468035,1.865910
1972000,-0.411803,-1.501164,8.774749,-1.958324,1.078722,0.659803
1976000,-0.476446,-1.436521,8.892065,-1.256034,1.002386,-0.454701
1980000,-0.608127,-1.493982,8.916007,-0.141530,0.727577,-1.156991
1984000,-0.804452,-1.489193,8.856153,0.972974,0.055821,-1.660808
1988000,-1.005565,-1.563414,8.781932,1.400455,-0.646469,-2.011953
1992000,-1.024718,-1.563414,8.729259,1.934806,-0.997614,-1.599739
1996000,-1.091756,-1.666364,8.640674,1.934806,-0.936545,-1.553938
