time_us,ax,ay,az,gx,gy,gz
0,0.457293,-0.268151,8.748413,0.301218,-2.295324,-1.218060
4000,0.476446,-0.270545,8.638280,-0.553744,-1.638835,-1.004319
8000,0.430956,-0.253785,8.568848,-0.996492,-0.295324,-1.050121
12000,0.442927,-0.284910,8.497022,-1.927789,0.803913,-1.248594
16000,0.356736,-0.320823,8.508993,-2.431606,1.216127,-1.080655
20000,0.392649,-0.368707,8.458714,-3.118629,1.307730,-0.851648
24000,0.433351,-0.407014,8.482656,-3.317102,1.231394,-1.004319
28000,0.351948,-0.351948,8.564059,-3.759850,0.727577,-0.958518
32000,0.308852,-0.383072,8.626308,-3.698782,-0.524331,-1.095922
36000,0.418985,-0.390255,8.671799,-3.897255,-1.745705,-1.172258
40000,0.418985,-0.387861,8.808268,-3.423972,-3.211354,-1.508136
44000,0.399832,-0.459687,8.916007,-2.889621,-4.936545,-1.752411
48000,0.280122,-0.454898,8.999804,-1.714049,-7.104484,-2.149358
52000,0.270545,-0.517148,8.894460,-0.935423,-9.226622,-1.996686
56000,0.237026,-0.521936,8.942344,-0.446873,-11.257156,-1.905083
60000,0.268151,-0.517148,8.892065,-0.462140,-12.096850,-2.057755
64000,0.265756,-0.428562,8.683769,-0.630080,-13.272423,-1.889816
68000,0.356736,-0.430956,8.719683,-1.698782,-14.188454,-1.737144
72000,0.421380,-0.533907,9.071630,-0.950690,-12.661736,-1.370732
76000,0.574608,-0.447716,9.018958,-1.027026,-10.615934,-1.202793
80000,0.605733,-0.375890,8.920795,-1.072828,-8.096850,-1.034854
84000,0.665588,-0.383072,8.719683,-1.118629,-5.608301,-0.989052
88000,0.670376,-0.332794,8.647857,-1.301835,-4.035782,-0.821113
92000,0.770933,-0.313640,8.688558,-1.927789,-2.264789,-0.622640
96000,0.787692,-0.260968,8.655039,-2.385804,-1.333492,-0.775312
100000,0.835576,-0.282516,8.707711,-2.523209,-1.318224,-0.744777
104000,0.905008,-0.316035,8.743625,-2.248400,-2.066316,-0.882182
108000,0.993594,-0.332794,8.734048,-1.912522,-2.417461,-1.508136
112000,0.928950,-0.304064,8.714894,-1.820919,-2.493797,-2.118823
116000,1.051055,-0.256180,8.726865,-1.714049,-3.028148,-2.439434
120000,1.036689,-0.256180,8.762778,-1.546110,-4.325858,-3.050121
124000,1.118092,-0.299275,8.813056,-1.714049,-5.196087,-3.691342
128000,1.089362,-0.313640,8.863335,-1.485041,-5.806774,-4.057755
132000,1.055843,-0.277727,8.844181,-1.469774,-6.707537,-4.393632
136000,1.149217,-0.351948,8.951921,-1.027026,-6.646469,-4.821113
140000,1.189918,-0.316035,8.870518,-0.645346,-5.364026,-4.973785
144000,1.268927,-0.311246,8.734048,-0.187331,-4.585400,-5.233327
148000,1.347936,-0.284910,8.671799,-0.156797,-3.760972,-5.828747
152000,1.405396,-0.289698,8.592790,-0.477408,-3.577766,-6.393632
156000,1.405396,-0.244209,8.497022,-0.660614,-3.028148,-6.897449
160000,1.429338,-0.275333,8.554482,-0.874354,-3.180820,-7.737144
164000,1.489193,-0.253785,8.453926,-1.591912,-2.753339,-8.531037
168000,1.419762,-0.308852,8.597578,-1.897255,-4.310591,-9.447068
172000,1.381454,-0.344765,8.676587,-1.683514,-6.386927,-10.042488
176000,1.345541,-0.371101,8.748413,-0.248400,-9.623569,-10.347831
180000,1.520318,-0.354342,8.877700,0.820302,-11.745706,-10.729510
184000,1.716643,-0.354342,8.863335,1.201982,-11.898377,-11.752412
188000,1.778892,-0.335188,8.901642,2.041676,-12.081584,-12.210426
192000,1.814805,-0.323217,8.710106,2.285951,-12.493797,-13.141725
196000,1.970428,-0.313640,8.834604,2.652363,-12.325858,-13.874549
200000,2.102109,-0.375890,8.908825,2.698165,-11.043416,-14.561572
204000,2.114080,-0.296881,8.712500,2.972974,-9.272423,-15.431801
208000,2.233790,-0.270545,8.681376,3.125646,-7.974713,-15.981419
212000,2.454057,-0.275333,8.707711,3.293585,-6.234255,-17.156990
216000,2.322376,-0.205901,8.511387,3.201982,-4.509064,-18.103556
220000,2.372654,-0.277727,8.319851,2.820302,-2.631201,-19.065388
224000,2.288857,-0.253785,8.209718,1.400455,-2.783873,-20.011953
228000,2.135628,-0.344765,8.331821,1.018775,-3.333492,-20.363098
232000,2.269703,-0.395043,8.362947,0.850837,-3.623568,-20.821114
236000,2.384625,-0.368707,8.204929,0.423356,-3.638835,-21.584471
240000,2.513912,-0.457293,8.149862,0.087478,-4.356392,-22.286762
244000,2.506729,-0.387861,8.200141,-0.324736,-5.516697,-23.492868
248000,2.679112,-0.433351,8.305486,-0.798018,-6.249522,-24.164623
252000,2.767697,-0.481235,8.384495,-1.393438,-6.814407,-25.385998
256000,2.858677,-0.476446,8.370130,-1.836186,-7.684637,-26.439434
260000,2.880225,-0.507571,8.379706,-2.233133,-7.760972,-27.309662
264000,2.894590,-0.550666,8.456321,-2.706415,-7.104484,-28.317295
268000,3.011906,-0.644040,8.664616,-3.011759,-6.585400,-28.912716
272000,2.961627,-0.565032,8.461109,-3.286568,-5.455629,-29.584471
276000,2.992752,-0.521936,8.576031,-4.187331,-5.165553,-30.179892
280000,3.189077,-0.600945,8.700529,-4.874354,-3.883110,-30.805845
284000,3.265691,-0.598550,8.939949,-4.889622,-1.699904,-31.324930
288000,3.332729,-0.565032,8.899248,-4.935423,0.055821,-32.149357
292000,3.536236,-0.641646,8.990228,-4.752217,2.498570,-32.897449
296000,3.612850,-0.639252,9.109938,-4.340003,5.185593,-33.920349
300000,3.701436,-0.588974,9.145850,-3.698782,7.445135,-35.050121
304000,3.758897,-0.533907,9.054871,-3.103362,9.124523,-36.469967
308000,3.825934,-0.533907,8.935161,-2.477408,9.994752,-37.920349
312000,3.859453,-0.440533,8.911219,-1.836186,10.666508,-39.248592
316000,3.995923,-0.500388,8.638280,-1.423972,10.177958,-41.156990
320000,4.027047,-0.512359,8.549694,-1.286568,8.834447,-43.263863
324000,4.175488,-0.493206,8.664616,-0.691148,7.216127,-45.569202
328000,4.254497,-0.483629,8.722076,-0.294202,4.956585,-47.798210
332000,4.230555,-0.514753,8.678981,0.285951,3.322997,-50.469967
336000,4.137180,-0.553061,8.652645,0.682898,1.460402,-52.698975
340000,4.043807,-0.553061,8.609550,0.514959,-0.081583,-54.729511
344000,3.924097,-0.565032,8.592790,0.072211,-2.142652,-56.439434
348000,3.950433,-0.639252,8.667010,-0.538476,-3.730438,-57.981419
352000,3.928885,-0.636858,8.844181,-1.057560,-4.615934,-59.202793
356000,4.024653,-0.684742,8.863335,-1.347636,-4.295324,-60.775311
360000,4.134786,-0.687136,8.865729,-1.836186,-3.165553,-61.767677
364000,4.347870,-0.670376,9.083601,-1.988858,-0.463263,-63.126457
368000,4.467580,-0.648829,9.033323,-2.263667,2.651241,-64.897446
372000,4.589684,-0.665588,9.222465,-2.721682,5.170325,-66.698975
376000,4.699818,-0.723049,9.181764,-2.859087,7.903150,-68.714241
380000,4.807557,-0.837971,9.251195,-2.691148,10.773378,-70.561569
384000,4.666299,-0.859518,9.081207,-2.324736,12.971851,-72.576836
388000,4.503493,-0.972046,8.880095,-2.110996,14.468035,-74.668442
392000,4.386178,-0.981623,8.793902,-2.462140,14.025287,-76.378365
396000,4.386178,-1.074997,8.925584,-2.584278,12.742844,-78.271492
400000,4.326323,-1.096544,8.822633,-1.652980,11.536737,-80.408897
404000,4.335899,-1.189918,8.901642,-1.179698,8.849714,-82.164627
408000,4.424485,-1.209072,8.892065,-0.080461,6.498569,-84.637909
412000,4.472369,-1.151611,8.853758,0.988241,4.437501,-87.050117
416000,4.525041,-1.271321,8.817844,2.056943,2.330631,-89.905083
420000,4.412514,-1.247379,8.949526,2.789768,0.544371,-92.683708
424000,4.422091,-1.266533,8.978256,3.766867,-0.035782,-95.569206
428000,4.307169,-1.359907,8.772355,4.240149,-0.096850,-97.508133
432000,4.302381,-1.295263,8.781932,4.423356,0.376432,-99.172256
436000,4.173094,-1.345541,8.669404,4.514959,1.109257,-101.691345
440000,3.933673,-1.369483,8.439561,4.591295,1.903150,-103.141724
444000,3.849876,-1.441309,8.401254,4.392821,2.529104,-104.607368
448000,3.773262,-1.632846,8.192958,3.889004,3.048188,-105.813477
452000,3.732560,-1.640028,8.441956,3.278317,4.223761,-106.729507
456000,3.801992,-1.601721,8.492233,2.805035,5.399333,-107.401268
460000,3.921702,-1.616086,8.597578,1.659997,7.674142,-108.317299
464000,4.096479,-1.671153,8.446744,0.240150,10.590172,-109.859283
468000,4.074931,-1.644817,8.439561,-0.859087,13.109256,-111.355461
472000,4.094085,-1.711854,8.643068,-1.652980,14.681775,-113.401268
476000,4.084508,-1.774103,8.645462,-2.385804,16.681776,-114.866913
480000,3.912126,-1.814805,8.599973,-2.599545,17.781012,-116.408897
484000,3.797204,-1.869871,8.547300,-2.630080,18.254293,-118.027222
488000,3.651158,-1.924938,8.403648,-2.217866,17.292461,-119.386002
492000,3.543418,-1.951274,8.370130,-1.714049,15.933683,-120.821114
496000,3.567361,-1.874660,8.408437,-2.156797,14.468035,-122.637909
500000,3.612850,-1.927332,8.408437,-2.904888,13.139791,-124.653175
504000,3.471592,-2.020706,8.616732,-3.042293,11.277195,-126.943253
508000,3.493140,-2.087744,8.595184,-2.935423,8.712310,-128.760040
512000,3.359065,-2.209848,8.803479,-2.507942,6.727577,-130.592102
516000,3.325546,-2.190695,8.904037,-2.263667,4.910783,-132.210419
520000,3.272874,-2.403779,9.054871,-1.881988,3.933684,-133.813477
524000,3.215413,-2.446874,9.093178,-1.088094,3.842081,-134.943253
528000,3.090914,-2.396596,9.114726,-0.645346,4.880249,-135.996689
532000,2.964022,-2.492364,9.124303,-0.278934,7.231394,-136.866913
536000,2.968810,-2.566584,9.160215,-0.187331,10.605439,-137.218063
540000,2.868254,-2.631228,9.105149,0.591295,14.574905,-137.492874
544000,2.669535,-2.707842,8.935161,0.698165,16.727577,-138.164627
548000,2.655170,-2.683900,8.817844,0.469157,18.132156,-138.469971
552000,2.499547,-2.863465,8.825027,0.011142,19.887882,-139.126450
556000,2.377442,-2.882619,8.834604,-0.614812,20.635973,-139.462341
560000,2.408567,-2.908955,8.865729,-1.011759,20.971851,-139.798218
564000,2.655170,-3.002329,8.942344,-1.301835,21.811546,-140.912720
568000,2.858677,-2.997540,8.906430,-1.775118,22.880249,-142.103561
572000,3.086126,-3.114856,8.911219,-2.019392,23.475668,-144.500504
576000,3.083732,-3.110068,8.810662,-2.187331,22.803913,-146.836380
580000,2.899378,-3.222595,8.860941,-2.889621,21.597805,-149.340195
584000,2.983175,-3.248932,8.975863,-3.164430,20.605440,-151.676071
588000,2.861071,-3.375824,8.951921,-3.546110,19.994753,-154.103561
592000,2.643199,-3.495534,9.023746,-4.065194,19.964218,-155.935623
596000,2.305616,-3.636792,9.203311,-3.561377,20.193226,-157.187531
600000,2.099715,-3.761291,9.320627,-2.569010,21.170324,-157.767685
604000,1.855506,-3.806781,9.289502,-1.759850,21.933683,-158.424164
608000,1.613692,-3.926491,9.313444,-1.164430,22.651241,-158.668442
612000,1.489193,-3.871424,9.361329,-0.538476,23.093988,-158.790573
616000,1.374272,-3.926491,9.361329,0.316485,22.574905,-158.927979
620000,1.285686,-3.988740,9.373300,1.385188,22.758112,-159.004318
624000,1.120486,-4.058172,9.330204,2.301218,22.895515,-159.782944
628000,1.314417,-4.096479,9.052477,3.018775,24.422234,-159.859283
632000,1.199495,-4.170700,8.923190,4.179081,23.139790,-160.439438
636000,1.228225,-4.091691,8.803479,4.576027,21.200859,-160.897446
640000,1.429338,-4.034230,8.916007,4.560760,20.116890,-161.935623
644000,1.556231,-4.005499,8.748413,3.919539,19.445133,-163.615005
648000,1.570596,-4.094085,8.544906,3.049310,18.559637,-165.309662
652000,1.441309,-4.103662,8.470686,2.392821,17.613073,-167.309662
656000,1.247379,-4.091691,8.283937,1.400455,16.895515,-168.500504
660000,1.055843,-4.194642,8.214506,-0.141530,16.559637,-169.111191
664000,1.223437,-4.132392,8.149862,-2.049927,17.185593,-169.950882
668000,1.154005,-4.132392,8.236053,-4.843820,18.651241,-170.760040
672000,1.077391,-4.278439,8.391677,-5.958323,19.292461,-171.431793
676000,1.091756,-4.355053,8.441956,-6.584278,21.002386,-171.492874
680000,1.113304,-4.388572,8.710106,-6.767485,24.574905,-171.920349
684000,1.122881,-4.378995,8.920795,-6.446874,27.613073,-171.889816
688000,1.154005,-4.491522,9.136273,-5.744583,31.765743,-172.286758
692000,1.079785,-4.517859,9.165004,-4.691149,37.826813,-172.744781
696000,0.916979,-4.546589,8.844181,-4.049927,42.055820,-173.477600
700000,0.914585,-4.632780,8.731653,-3.561377,45.613071,-174.378372
704000,0.864307,-4.733337,8.623915,-2.767484,47.536736,-175.324936
708000,0.900220,-4.745308,8.477868,-2.462140,47.078720,-176.393631
712000,0.854730,-4.790798,8.305486,-3.088094,46.254295,-177.752411
716000,0.790087,-4.845864,8.269572,-3.958324,45.338264,-179.141724
720000,0.641646,-4.829105,8.147469,-4.385805,44.605438,-180.622635
724000,0.555455,-4.944026,8.178593,-3.851454,40.468037,-181.340195
728000,0.354342,-5.023035,8.271967,-2.721682,36.849712,-181.981415
732000,-0.031125,-5.051765,8.276755,-1.973591,34.132156,-182.042480
736000,-0.191536,-5.082890,8.355764,-1.881988,32.941319,-181.615005
740000,-0.110133,-5.025429,8.391677,-2.569010,34.697041,-180.836380
744000,-0.356736,-5.121197,8.238448,-3.133896,37.261929,-179.737137
748000,-0.658405,-5.238513,8.054094,-3.561377,39.719944,-178.668442
752000,-0.730232,-5.291186,7.999028,-4.920156,42.177959,-177.431793
756000,-0.826000,-5.269638,7.951144,-6.004126,45.429867,-176.011948
760000,-0.869095,-5.379771,7.850587,-7.011759,49.628342,-174.836380
764000,-0.979228,-5.475539,7.824251,-8.004126,53.628342,-173.737137
768000,-1.173159,-5.475539,7.656657,-8.263667,57.429867,-172.057755
772000,-1.290475,-5.626374,7.635109,-8.462141,59.918415,-170.408905
776000,-1.319205,-5.537788,7.630321,-8.782751,61.750477,-168.866913
780000,-1.479617,-5.573701,7.364564,-8.110995,61.552006,-168.073029
784000,-1.374272,-5.513846,7.541735,-8.324736,59.765743,-167.340195
788000,-1.403002,-5.556942,7.546524,-8.126263,59.109257,-166.790573
792000,-1.635240,-5.506664,7.455544,-7.637713,57.216125,-166.134094
796000,-1.829170,-5.494693,7.402872,-7.194965,53.658875,-165.340195
800000,-1.915361,-5.473145,7.319075,-7.240767,50.162693,-164.317291
804000,-2.133234,-5.442020,7.563283,-6.828553,47.338264,-163.355469
808000,-2.166753,-5.456386,7.807492,-5.881988,45.475670,-162.225693
812000,-2.188300,-5.518635,7.936779,-4.828553,45.032921,-161.248596
816000,-2.449268,-5.571307,7.762002,-2.614812,45.231392,-159.798218
820000,-2.760514,-5.389348,7.539341,-1.469774,44.788647,-158.164627
824000,-2.999935,-5.415684,7.467515,-0.675881,44.971851,-155.935623
828000,-3.246537,-5.248090,7.433996,-0.065194,45.506203,-153.523407
832000,-3.430891,-5.054160,7.347805,-0.340003,44.422234,-150.912720
836000,-3.512294,-5.066131,7.295133,0.209615,43.490936,-148.424164
840000,-3.598485,-5.008670,7.331046,1.079844,43.261929,-146.256226
844000,-3.732560,-4.970363,7.149086,2.362287,41.231392,-144.118820
848000,-3.876213,-4.876989,7.094019,2.911905,39.185593,-141.752411
852000,-3.797204,-4.793192,7.129933,2.911905,38.834446,-140.240967
856000,-3.936068,-4.666299,6.955156,2.209615,38.254295,-138.607376
860000,-3.993528,-4.551377,6.907272,1.812669,36.559639,-137.156998
864000,-4.278439,-4.503493,6.818686,1.858470,34.651241,-135.813477
868000,-4.515464,-4.474763,6.706159,2.331753,33.109257,-133.721878
872000,-5.056554,-4.381389,6.373365,2.224883,32.513836,-131.172256
876000,-5.377377,-4.364630,6.133945,1.919539,32.101624,-128.149368
880000,-5.552154,-4.319140,6.114791,1.263050,30.941317,-124.622643
884000,-5.679047,-4.173094,6.102820,0.667630,29.261929,-121.721878
888000,-5.863400,-4.163517,6.294356,0.453890,26.941317,-118.576836
892000,-6.124368,-4.189853,6.320693,0.179081,23.857347,-115.431801
896000,-6.457162,-4.235343,6.375759,-0.049927,20.559637,-111.538673
900000,-6.471527,-4.244920,6.291962,-0.798018,18.193226,-107.859283
904000,-6.528988,-4.180276,6.323087,-2.187331,16.376432,-104.179893
908000,-6.696582,-4.077325,6.433220,-4.019392,14.803913,-100.149361
912000,-6.981492,-3.964798,6.701371,-5.866721,12.345898,-96.561569
916000,-7.122750,-3.960010,6.926425,-7.485042,10.254294,-92.225693
920000,-7.230489,-3.885789,7.134721,-8.507942,9.261928,-87.782944
924000,-7.216124,-3.778050,7.292738,-9.362904,10.193226,-83.050117
928000,-7.187394,-3.699042,7.381324,-9.820919,10.208493,-78.622643
932000,-7.065289,-3.564966,7.568071,-9.943057,11.368798,-74.195160
936000,-6.833052,-3.375824,7.682993,-9.836186,12.315363,-70.103554
940000,-6.584054,-3.217807,7.809886,-10.034659,13.674142,-66.897446
944000,-6.378153,-3.124433,7.927202,-10.080462,13.994752,-64.103554
948000,-6.248867,-2.961627,8.140285,-9.362904,13.887882,-61.828747
952000,-6.150704,-2.913743,8.317456,-8.065194,12.681775,-59.477600
956000,-6.203377,-2.803610,8.463503,-6.889622,10.849714,-57.981419
960000,-6.325481,-2.741361,8.365341,-5.973591,9.292462,-55.416534
964000,-6.332664,-2.624045,8.398860,-4.904889,6.239028,-53.004318
968000,-6.088455,-2.571373,8.561666,-4.599545,4.071089,-51.248592
972000,-6.074090,-2.480393,8.836999,-5.057561,4.498569,-48.989052
976000,-6.378153,-2.511518,8.959103,-3.698782,2.193226,-46.088287
980000,-6.270414,-2.394202,8.954314,-3.256034,-0.356392,-43.538670
984000,-6.210559,-2.346318,9.119514,-3.088094,0.315363,-40.363098
988000,-6.167464,-2.319981,9.181764,-3.423972,1.048188,-37.615005
992000,-6.033388,-2.171541,9.315839,-3.973591,2.697043,-34.179890
996000,-5.793968,-2.003947,9.320627,-4.034659,5.155058,-30.927982
1000000,-5.626374,-1.884237,9.361329,-4.019392,7.429867,-28.118822
1004000,-5.334281,-1.697489,9.327810,-4.340003,10.040554,-25.309662
1008000,-5.166687,-1.632846,9.193734,-4.446874,12.849714,-22.866915
1012000,-4.948815,-1.572991,9.258378,-4.660614,15.002386,-20.668442
1016000,-4.795586,-1.505953,9.306262,-5.210233,15.903149,-19.202791
1020000,-4.625597,-1.393425,9.433155,-5.576645,16.849714,-17.996685
1024000,-4.563348,-1.345541,9.394848,-5.668247,16.269562,-16.897449
1028000,-4.522647,-1.326388,9.366117,-5.897255,14.498569,-15.813480
1032000,-4.584896,-1.326388,9.368511,-5.027026,12.880248,-14.790579
1036000,-4.469975,-1.340753,9.409213,-4.004126,10.926050,-13.248594
1040000,-4.441244,-1.242591,9.500193,-3.256034,9.384066,-12.286762
1044000,-4.477157,-1.211466,9.550470,-2.889621,9.704676,-10.973785
1048000,-4.469975,-1.149217,9.514558,-2.370538,9.796279,-9.370732
1052000,-4.352659,-1.125275,9.346964,-1.408705,9.979486,-7.691342
1056000,-4.369418,-1.055843,9.093178,-0.828552,10.544371,-5.828747
1060000,-4.288015,-0.957681,8.774749,-0.904888,11.185592,-4.088289
1064000,-4.070143,-0.878672,8.789114,-0.904888,11.506203,-2.210426
1068000,-3.940856,-0.859518,8.602366,-1.179698,12.254294,-0.943251
1072000,-3.641581,-0.703895,8.487445,-1.561377,12.758111,0.278123
1076000,-3.459621,-0.737414,8.437167,-1.698782,13.490935,1.178887
1080000,-3.162740,-0.624887,8.319851,-1.897255,12.864982,1.102551
1084000,-2.968810,-0.591368,8.463503,-2.309469,12.513836,1.041482
1088000,-2.794033,-0.620098,8.532935,-2.294202,12.345898,0.675070
1092000,-2.885013,-0.730232,8.350976,-1.836186,11.429867,0.079650
1096000,-3.016694,-0.708684,8.123527,-1.668247,9.735210,0.461329
1100000,-2.846706,-0.735020,8.054094,-1.546110,8.910783,0.262856
1104000,-2.731784,-0.785298,8.113950,-1.500308,8.437500,0.491864
1108000,-2.607286,-0.814029,8.178593,-1.714049,7.918417,0.675070
1112000,-2.523489,-0.785298,8.034941,-2.034660,8.162691,0.675070
1116000,-2.329558,-0.859518,8.008605,-2.492675,8.406966,0.919345
1120000,-2.370260,-0.931344,7.951144,-3.179698,8.406966,1.453696
1124000,-2.377442,-1.084573,8.020576,-3.652980,8.864982,2.232322
1128000,-2.243367,-1.199495,8.078036,-4.385805,8.803913,2.827742
1132000,-2.181118,-1.347936,8.271967,-4.507942,9.704676,3.239955
1136000,-2.135628,-1.493982,8.288726,-4.630079,11.124523,4.033849
1140000,-2.126051,-1.522712,8.310274,-4.599545,11.368798,4.308658
1144000,-1.941698,-1.534683,8.281544,-4.523210,11.277195,4.537665
1148000,-1.802834,-1.558625,8.396465,-4.202599,10.956584,4.659803
1152000,-1.817199,-1.587356,8.535329,-3.057560,9.964218,4.461329
1156000,-1.795651,-1.644817,8.508993,-1.881988,9.292462,4.766673
1160000,-1.733402,-1.668759,8.487445,-0.065194,8.223760,5.224689
1164000,-1.716643,-1.673547,8.291121,0.972974,7.017653,5.545299
1168000,-1.616086,-1.601721,8.190564,1.583661,6.055821,5.804841
1172000,-1.391031,-1.561020,8.049306,2.056943,5.185593,5.972780
1176000,-1.216254,-1.458069,8.214506,1.919539,4.269562,6.201787
1180000,-1.029507,-1.448492,8.068460,1.675264,4.300097,6.018581
1184000,-0.914585,-1.393425,7.915231,0.774501,4.529104,5.804841
1188000,-0.768539,-1.400608,7.857770,-0.401072,4.300097,5.331559
1192000,-0.711078,-1.379060,7.927202,-0.721682,4.025287,4.934612
1196000,-0.579397,-1.393425,7.977480,-0.828552,3.139791,4.018581
1200000,-0.639252,-1.414973,7.955932,-0.981224,1.597806,3.316291
1204000,-0.665588,-1.403002,7.963115,-0.706415,-0.447995,2.476597
1208000,-0.622492,-1.412579,8.078036,-0.324736,-1.745705,1.667436
1212000,-0.715866,-1.458069,8.125920,0.148546,-3.211354,1.316291
1216000,-0.809240,-1.532289,8.090008,0.118012,-4.875476,0.552933
1220000,-0.840365,-1.508347,8.018182,-0.004125,-6.799140,0.217055
1224000,-0.814029,-1.534683,7.975086,-0.859087,-8.127385,0.064383
1228000,-0.823605,-1.525106,7.891289,-1.515576,-9.150286,0.033849
1232000,-0.857124,-1.575385,7.888895,-2.584278,-9.073950,0.018581
1236000,-0.885855,-1.608904,7.821857,-3.256034,-9.135018,0.217055
1240000,-0.770933,-1.563414,7.915231,-4.324736,-8.096850,0.217055
1244000,-0.802058,-1.651999,7.891289,-4.965958,-5.623568,0.491864
1248000,-0.811634,-1.582567,7.948750,-5.622446,-4.005247,0.323925
1252000,-0.878672,-1.776498,7.924808,-5.851454,-2.096850,0.736139
1256000,-0.979228,-1.695095,7.867347,-5.927790,-0.936545,0.980413
1260000,-0.797269,-1.802834,7.843405,-6.004126,-0.646469,1.255223
1264000,-0.653617,-1.912967,7.845799,-5.988858,-0.493797,0.965146
1268000,-0.579397,-1.905785,8.032547,-6.156797,-1.211354,0.644536
1272000,-0.562637,-2.049437,8.262390,-5.607179,-1.287690,0.461329
1276000,-0.505177,-2.011129,8.492233,-5.530843,-1.180820,-0.134090
1280000,-0.634463,-2.032677,8.485051,-5.958323,-1.486163,-0.714243
1284000,-0.902614,-2.056619,8.547300,-6.034659,-1.715171,-0.637907
1288000,-1.063026,-2.133234,8.707711,-5.408706,-2.173186,-0.073022
1292000,-1.273715,-2.159570,8.781932,-4.736950,-2.341125,0.720871
1296000,-1.110910,-2.061408,8.753201,-4.385805,-2.356392,1.484230
1300000,-0.881066,-1.927332,8.738836,-4.019392,-1.226621,2.155986
1304000,-0.737414,-1.936909,8.695741,-3.118629,-0.127385,2.491864
1308000,-0.555455,-1.769315,8.808268,-2.340003,0.742844,1.988047
1312000,-0.457293,-1.731008,8.647857,-1.820919,2.040554,1.697971
1316000,-0.565032,-1.642422,8.463503,-1.149163,2.193226,0.980413
1320000,-0.634463,-1.625663,8.444349,-0.065194,2.040554,0.568200
1324000,-0.914585,-1.491588,8.130709,0.591295,0.620707,0.614001
1328000,-0.794875,-1.414973,8.171411,0.484424,-0.768606,0.186520
1332000,-0.634463,-1.383849,8.183381,0.606562,-1.760972,-0.164625
1336000,-0.768539,-1.386243,8.123527,0.820302,-3.669369,-0.637907
1340000,-0.600945,-1.343147,7.955932,0.606562,-6.264789,-1.645541
1344000,-0.598550,-1.345541,7.905654,-0.141530,-8.432729,-2.698976
1348000,-0.629675,-1.352724,7.857770,-0.736950,-9.608301,-3.248594
1352000,-0.687136,-1.419762,7.702147,-1.469774,-11.333492,-4.149358
1356000,-0.751779,-1.472434,7.862558,-2.263667,-12.722805,-4.744777
1360000,-0.811634,-1.577779,7.912837,-3.576644,-12.661736,-5.126457
1364000,-0.960075,-1.584962,8.169016,-4.675881,-11.608301,-5.141724
1368000,-1.118092,-1.604115,8.195353,-5.485042,-10.310591,-4.912716
1372000,-1.125275,-1.699883,8.315063,-6.370538,-9.440362,-4.622640
1376000,-1.051055,-1.656788,8.611943,-6.996491,-8.127385,-4.622640
1380000,-1.043872,-1.742979,8.839393,-7.362904,-5.806774,-4.500503
1384000,-1.070208,-1.695095,9.114726,-6.950690,-3.547232,-4.042487
1388000,-0.986411,-1.719037,9.179369,-5.744583,-1.348759,-3.813480
1392000,-1.058237,-1.793257,9.136273,-4.859087,0.284829,-4.134090
1396000,-1.067814,-1.683124,9.105149,-4.065194,1.200860,-4.103556
1400000,-1.084573,-1.704672,9.157822,-2.904888,1.826814,-3.905083
1404000,-0.940921,-1.726219,9.117120,-2.126262,2.101623,-3.889816
1408000,-0.938527,-1.771709,9.035717,-1.561377,1.918417,-4.286762
1412000,-0.861913,-1.721431,9.133880,-1.469774,0.864982,-4.698976
1416000,-0.787692,-1.776498,9.136273,-1.088094,0.483302,-5.218060
1420000,-0.960075,-1.771709,9.174581,-0.767484,0.559638,-5.569205
1424000,-1.144428,-1.857901,9.018958,-0.401072,-0.005247,-5.721877
1428000,-1.276109,-1.893813,9.018958,-0.294202,-0.203721,-5.324930
1432000,-1.292869,-1.977611,8.911219,0.255417,-0.478530,-4.790579
1436000,-1.467646,-1.958457,8.851364,0.682898,-0.661736,-4.225693
1440000,-1.505953,-1.972822,8.738836,0.881371,-1.470896,-3.569205
1444000,-1.347936,-1.877054,8.743625,0.988241,-0.997614,-3.095922
1448000,-1.295263,-1.898602,8.695741,1.690531,-0.646469,-2.546304
1452000,-1.280898,-1.908179,8.576031,2.469157,-1.135018,-2.592106
1456000,-1.331176,-1.877054,8.283937,3.156180,-1.913644,-2.408900
1460000,-1.261744,-1.877054,8.303091,3.354653,-2.081583,-2.210426
1464000,-1.233014,-1.850718,8.267179,3.018775,-2.218988,-2.057755
1468000,-1.165976,-1.774103,8.099585,2.347020,-2.524331,-2.134090
1472000,-1.235408,-1.838747,8.226477,1.430989,-2.783873,-1.920350
1476000,-1.237802,-1.821988,8.226477,0.377554,-2.875476,-1.844014
1480000,-1.285686,-1.877054,8.039729,-0.477408,-3.257156,-1.248594
1484000,-1.312023,-1.881842,7.958326,-1.530843,-3.562499,-1.004319
1488000,-1.142034,-1.900996,8.101978,-2.904888,-3.486163,-0.485235
1492000,-1.046266,-1.917756,8.394072,-3.652980,-1.974713,-0.378365
1496000,-0.926556,-1.917756,8.576031,-4.156797,-1.104484,-0.454701
1500000,-0.854730,-2.056619,8.750807,-4.004126,-0.463263,-0.882182
1504000,-0.873884,-2.015918,8.882488,-3.530843,0.162692,-1.370732
1508000,-0.900220,-2.023100,9.153033,-2.553744,1.063455,-1.553938
1512000,-1.115698,-2.018312,9.155427,-1.439240,1.353531,-1.645541
1516000,-1.228225,-2.001553,9.282320,-0.431606,0.697043,-1.844014
1520000,-1.321599,-1.968034,9.421184,1.049310,-0.051049,-1.187526
1524000,-1.237802,-2.018312,9.356541,2.713432,-0.661736,-0.989052
1528000,-1.302446,-1.944092,9.315839,4.499691,-1.211354,-0.882182
1532000,-1.276109,-1.869871,9.138668,5.751600,-1.989980,-0.378365
1536000,-1.168370,-1.790863,8.954314,6.026409,-1.852576,-0.179892
1540000,-1.108515,-1.733402,8.961497,5.965341,-0.814408,-0.011953
1544000,-0.900220,-1.663970,8.714894,5.721066,-0.081583,0.003314
1548000,-0.907402,-1.625663,8.415619,5.583661,0.651241,-0.134090
1552000,-0.921768,-1.551443,8.396465,5.278317,0.895516,-0.408900
1556000,-0.888249,-1.513135,8.118738,4.896638,1.368798,-0.256228
1560000,-0.778116,-1.443704,8.106767,3.858470,1.887883,-0.302029
1564000,-0.679953,-1.395820,7.917625,2.438623,2.697043,-0.668442
1568000,-0.684742,-1.364695,7.905654,1.034043,2.788646,-0.989052
1572000,-0.665588,-1.395820,7.896077,-0.263667,2.208493,-1.355464
1576000,-0.782904,-1.410185,7.740454,-1.790385,0.971852,-1.767678
1580000,-0.778116,-1.405396,8.027759,-3.042293,0.055821,-1.782945
1584000,-0.785298,-1.414973,8.231265,-3.897255,-0.188453,-2.088289
1588000,-0.857124,-1.424550,8.303091,-4.462141,0.086356,-2.240961
1592000,-0.938527,-1.572991,8.415619,-4.569011,-0.081583,-2.118823
1596000,-0.995988,-1.620875,8.597578,-4.446874,-0.280056,-1.859281
1600000,-1.039083,-1.637634,8.597578,-4.263667,0.040554,-1.920350
1604000,-1.005565,-1.731008,8.705317,-3.683514,0.559638,-1.721877
1608000,-1.091756,-1.836353,8.674192,-3.423972,1.139791,-1.660808
1612000,-0.991199,-1.877054,8.698134,-2.706415,1.231394,-1.584472
1616000,-0.754174,-1.932121,8.774749,-1.576644,2.437501,-1.966151
1620000,-0.787692,-1.975216,8.719683,0.056943,2.742844,-2.561571
1624000,-0.902614,-2.054225,8.767567,1.644730,2.162692,-3.050121
1628000,-1.012747,-2.166753,8.671799,3.339386,1.155058,-3.309663
1632000,-1.168370,-2.078167,8.652645,4.118012,-1.119751,-3.523403
1636000,-1.300052,-2.094927,8.576031,4.698165,-3.119751,-3.294396
1640000,-1.312023,-2.149993,8.425196,4.789768,-4.753339,-2.866915
1644000,-1.249773,-2.073379,8.406042,4.514959,-5.119751,-2.347831
1648000,-1.168370,-2.090138,8.281544,4.087478,-5.699903,-2.225693
1652000,-1.077391,-2.059013,8.159439,3.217249,-5.699903,-1.584472
1656000,-0.984017,-2.003947,8.157045,1.721066,-4.463263,-1.233327
1660000,-0.859518,-1.972822,8.267179,0.881371,-2.585400,-1.080655
1664000,-0.852336,-1.900996,8.410830,0.148546,0.437501,-1.126457
1668000,-0.770933,-1.929727,8.444349,-0.248400,2.361165,-0.714243
1672000,-0.737414,-1.920150,8.530540,-0.416339,4.803913,-0.760045
1676000,-0.871489,-1.922544,8.626308,-0.172064,6.864982,-0.958518
1680000,-0.967257,-1.946486,8.619126,0.301218,7.903150,-0.851648
1684000,-1.139640,-1.975216,8.631097,0.728699,7.414600,-0.744777
1688000,-1.209072,-1.874660,8.846576,1.644730,6.605440,-0.500503
1692000,-1.144428,-1.862689,8.607155,2.499691,5.185593,-0.439434
1696000,-1.098939,-1.819593,8.676587,3.400455,3.246661,-0.927984
1700000,-1.106121,-1.788469,8.604761,3.965340,2.391699,-1.263861
1704000,-1.137246,-1.903390,8.418014,4.270684,2.193226,-1.080655
1708000,-1.278504,-1.865083,8.209718,4.163814,0.605440,-0.851648
1712000,-1.213860,-1.795651,8.152257,3.629463,0.147424,-0.637907
1716000,-1.204283,-1.766921,8.118738,2.942440,-0.035782,-0.347831
1720000,-0.933739,-1.675941,7.872135,1.980608,-0.447995,-0.332564
1724000,-0.900220,-1.668759,7.855376,0.759233,-0.417461,-0.790579
1728000,-0.773327,-1.714248,7.948750,-0.126262,0.727577,-1.004319
1732000,-0.837971,-1.723825,7.972692,-1.225499,0.819180,-1.477602
1736000,-0.936133,-1.699883,8.159439,-2.065194,0.590173,-1.798213
1740000,-0.964863,-1.702277,8.207323,-2.355270,0.239028,-2.149358
1744000,-1.017536,-1.759738,8.391677,-2.904888,-0.814408,-2.225693
1748000,-1.091756,-1.783680,8.535329,-2.752217,-1.180820,-2.454701
1752000,-1.244985,-1.865083,8.470686,-2.706415,-2.112118,-2.149358
1756000,-1.304840,-1.821988,8.473080,-2.767484,-3.211354,-1.920350
1760000,-1.177947,-1.745373,8.676587,-3.088094,-3.791507,-1.538671
1764000,-1.010353,-1.747767,8.985439,-2.660614,-2.936545,-1.340197
1768000,-0.916979,-1.707066,8.935161,-1.836186,-1.593034,-1.340197
1772000,-0.938527,-1.731008,8.877700,-1.225499,-0.539598,-1.477602
1776000,-0.897826,-1.728614,8.817844,-0.462140,0.987119,-1.431800
1780000,-1.098939,-1.778892,8.892065,0.011142,2.071089,-1.355464
1784000,-1.074997,-1.747767,8.956709,0.453890,3.032921,-1.095922
1788000,-1.094150,-1.762132,8.932767,1.568394,4.239028,-1.126457
1792000,-1.098939,-1.781286,8.810662,2.484425,3.811547,-0.973785
1796000,-1.118092,-1.903390,8.717288,3.827936,3.216127,-1.309663
1800000,-1.070208,-1.869871,8.657434,4.667631,2.590173,-1.279129
1804000,-1.151611,-1.800440,8.748413,5.034043,1.521470,-1.523403
1808000,-1.254562,-1.908179,8.403648,4.957707,-1.012881,-1.935617
1812000,-1.127669,-1.821988,8.559271,4.499691,-3.028148,-1.676075
1816000,-1.228225,-1.900996,8.611943,3.827936,-3.211354,-2.042487
1820000,-1.333570,-1.853112,8.468291,3.201982,-3.608301,-1.721877
1824000,-1.355118,-1.879448,8.355764,2.514959,-3.364026,-1.248594
1828000,-1.371878,-1.862689,8.173804,1.751600,-2.677003,-0.592106
1832000,-1.335965,-1.836353,8.327033,0.499691,-1.684637,-0.088289
1836000,-1.216254,-1.786075,8.339005,-0.233133,-0.249522,0.232322
1840000,-1.268927,-1.735796,8.391677,-0.798018,0.635974,0.675070
1844000,-1.189918,-1.719037,8.403648,-1.256034,1.307730,0.552933
1848000,-1.063026,-1.716643,8.619126,-1.133896,3.032921,0.843009
1852000,-1.173159,-1.702277,8.604761,-0.889621,4.055821,0.995681
1856000,-1.173159,-1.771709,8.434772,-0.355270,3.994753,1.072016
1860000,-1.283292,-1.702277,8.590396,-0.462140,3.490936,1.072016
1864000,-1.206678,-1.728614,8.573636,-0.278934,2.040554,0.858276
1868000,-1.237802,-1.687912,8.552089,0.102745,0.071089,0.919345
1872000,-1.244985,-1.671153,8.458714,0.469157,-1.806774,0.537665
1876000,-1.079785,-1.692701,8.372523,0.591295,-3.287690,0.430795
1880000,-1.036689,-1.644817,8.343793,0.270684,-3.577766,0.003314
1884000,-1.043872,-1.654393,8.451532,-0.187331,-3.745705,0.186520
1888000,-0.945710,-1.640028,8.348581,0.133279,-3.959446,-0.240961
1892000,-0.847547,-1.716643,8.525752,-0.034660,-3.730438,-0.546304
1896000,-0.952892,-1.683124,8.571242,0.102745,-3.379293,-0.989052
1900000,-1.053449,-1.800440,8.554482,0.240150,-2.921278,-0.851648
1904000,-1.029507,-1.817199,8.633492,0.484424,-2.066316,-0.882182
1908000,-1.106121,-1.764527,8.702923,0.576027,-2.127385,-0.866915
1912000,-1.209072,-1.783680,8.676587,0.682898,-1.822041,-0.775312
1916000,-1.192312,-1.845930,8.805874,0.988241,-1.623568,-0.485235
1920000,-1.259350,-1.793257,8.784326,1.537859,-1.654102,-0.103556
1924000,-1.261744,-1.843535,8.568848,1.629462,-1.944179,0.369726
1928000,-1.221043,-1.788469,8.535329,1.507325,-2.020514,0.537665
1932000,-1.103727,-1.786075,8.432379,1.003508,-1.883110,0.797207
1936000,-1.098939,-1.707066,8.446744,0.377554,-1.852576,1.010948
1940000,-0.914585,-1.628057,8.494628,0.285951,-2.600667,0.705604
1944000,-0.828394,-1.654393,8.552089,0.148546,-2.264789,0.171253
1948000,-0.967257,-1.541866,8.480263,0.270684,-2.142652,0.232322
1952000,-1.000776,-1.666364,8.422802,0.606562,-1.852576,-0.057755
1956000,-1.070208,-1.630451,8.449138,0.652363,-0.875476,0.125452
1960000,-1.005565,-1.623269,8.422802,0.362287,-0.066316,0.293391
1964000,-0.988805,-1.575385,8.504205,0.392821,0.697043,0.247589
1968000,-0.945710,-1.577779,8.549694,0.514959,1.185592,0.049116
1972000,-0.979228,-1.596933,8.485051,0.835569,1.231394,-0.271495
1976000,-1.065420,-1.637634,8.389283,1.018775,0.803913,-0.393632
1980000,-1.108515,-1.632846,8.341399,0.896638,0.727577,-0.256228
1984000,-1.151611,-1.675941,8.329428,1.171447,0.742844,0.079650
1988000,-1.108515,-1.616086,8.355764,1.110379,0.483302,0.217055
1992000,-0.981623,-1.649605,8.451532,0.698165,0.788646,0.278123
1996000,-0.823605,-1.630451,8.264784,0.514959,1.093989,-0.073022
