time_us,ax,ay,az,gx,gy,gz
0,0.809240,-0.833182,8.834604,1.186714,-5.928911,-2.393632
4000,0.720655,-0.871489,8.705317,1.171447,-4.478529,-2.271495
8000,0.770933,-0.926556,8.705317,1.049310,-3.165553,-1.828747
12000,0.837971,-0.828394,8.568848,0.530226,-1.654102,-1.721877
16000,0.742203,-0.873884,8.643068,-0.126262,-0.646469,-1.538671
20000,0.806846,-0.890643,8.590396,-0.416339,-0.463263,-1.538671
24000,0.718261,-0.888249,8.765172,-0.736950,-0.188453,-0.927984
28000,0.821211,-0.988805,8.779537,-0.401072,0.116890,-0.912716
32000,0.830788,-0.960075,8.784326,-0.340003,0.895516,-0.668442
36000,0.842759,-0.974440,8.877700,-0.553744,1.582539,-0.531037
40000,0.909797,-0.883460,8.762778,-0.324736,1.872615,-0.576838
44000,0.895431,-0.914585,8.777143,0.224882,1.521470,-0.576838
48000,0.921768,-0.847547,8.734048,0.698165,1.231394,-0.912716
52000,0.871489,-0.885855,8.714894,1.156180,0.758111,-1.095922
56000,0.876278,-0.837971,8.686164,1.278317,-0.218988,-1.218060
60000,0.775721,-0.837971,8.599973,1.492058,-1.135018,-1.141724
64000,0.770933,-0.897826,8.647857,1.339386,-1.486163,-0.989052
68000,0.689530,-0.926556,8.585608,0.927172,-2.066316,-0.714243
72000,0.770933,-0.924162,8.465898,0.392821,-2.310591,-0.729510
76000,0.749385,-0.866701,8.477868,-0.065194,-3.241888,-0.439434
80000,0.842759,-0.902614,8.398860,-0.859087,-3.898377,-0.439434
84000,0.814029,-1.010353,8.540117,-1.378171,-3.928911,-0.317297
88000,0.883460,-0.995988,8.403648,-2.065194,-3.745705,0.094917
92000,0.900220,-0.981623,8.458714,-2.385804,-3.348759,0.094917
96000,0.928950,-1.031901,8.552089,-2.935423,-3.135018,0.461329
100000,0.912191,-0.993594,8.461109,-2.813286,-3.547232,0.308658
104000,0.945710,-0.995988,8.588001,-2.798018,-4.218988,0.675070
108000,1.022324,-0.993594,8.657434,-3.011759,-4.417461,0.415528
112000,1.039083,-0.952892,8.623915,-2.446873,-4.860209,0.247589
116000,1.113304,-0.984017,9.006987,-2.019392,-5.058682,0.293391
120000,1.343147,-0.928950,9.088389,-1.027026,-4.661736,0.049116
124000,1.364695,-0.988805,9.167398,-0.110996,-3.623568,-0.561571
128000,1.312023,-0.945710,8.975863,0.637096,-2.677003,-0.897449
132000,1.285686,-0.945710,8.939949,0.820302,-1.486163,-1.080655
136000,1.218649,-0.940921,8.904037,0.927172,-1.043415,-0.821113
140000,1.225831,-0.885855,8.925584,1.018775,-0.447995,-0.989052
144000,1.338359,-0.854730,8.825027,1.079844,0.406966,-0.775312
148000,1.314417,-0.823605,8.868123,1.324119,1.384066,-1.126457
152000,1.400608,-0.878672,8.757990,1.110379,2.864982,-1.095922
156000,1.482011,-0.758962,8.710106,1.369921,3.979486,-1.721877
160000,1.465251,-0.830788,8.657434,1.354653,4.483303,-1.752411
164000,1.508347,-0.778116,8.568848,0.881371,3.918417,-2.424167
168000,1.474828,-0.794875,8.647857,0.530226,3.338264,-2.454701
172000,1.419762,-0.799663,8.607155,0.285951,2.177959,-3.019587
176000,1.443704,-0.770933,8.731653,0.240150,1.307730,-3.233327
180000,1.376666,-0.794875,8.614338,0.056943,0.712310,-3.508136
184000,1.458069,-0.802058,8.626308,0.118012,0.391699,-3.492869
188000,1.467646,-0.787692,8.667010,-0.126262,-0.600667,-3.935617
192000,1.482011,-0.746991,8.638280,-0.798018,-0.493797,-4.225693
196000,1.635240,-0.739808,8.702923,-0.782751,-0.218988,-4.240961
200000,1.613692,-0.746991,8.662222,-0.798018,0.406966,-4.408900
204000,1.723825,-0.806846,8.588001,-0.691148,0.926050,-4.821113
208000,1.671153,-0.826000,8.544906,-0.446873,1.826814,-5.050121
212000,1.738190,-0.758962,8.444349,-0.721682,2.422234,-5.248594
216000,1.826776,-0.770933,8.489840,-1.149163,1.857348,-6.118823
220000,1.838747,-0.782904,8.516175,-0.889621,0.681776,-6.744777
224000,1.855506,-0.857124,8.686164,-0.706415,-0.631201,-7.156991
228000,1.800440,-0.802058,8.592790,-0.752217,-1.776240,-7.721877
232000,1.884237,-0.857124,8.489840,-1.057560,-2.921278,-8.225694
236000,1.771709,-0.940921,8.736442,-1.515576,-4.677003,-8.561572
240000,1.881842,-0.888249,8.966286,-1.500308,-5.913644,-8.836381
244000,1.951274,-0.967257,9.100361,-1.057560,-6.341125,-9.095922
248000,1.996764,-0.938527,9.107543,-0.691148,-6.341125,-9.462335
252000,2.020706,-1.003170,9.251195,-0.340003,-5.531965,-10.149358
256000,2.011129,-0.933739,9.217676,0.637096,-3.898377,-10.073022
260000,1.996764,-0.945710,9.351752,1.461524,-2.218988,-10.256228
264000,1.968034,-0.981623,9.198523,1.980608,-0.386927,-10.302030
268000,1.999158,-1.019930,9.114726,2.285951,1.124524,-10.363098
272000,1.953669,-0.998382,8.947132,2.316485,2.727577,-10.057755
276000,2.140416,-0.995988,8.872911,2.224883,3.826814,-10.088289
280000,2.138022,-0.938527,8.813056,1.797401,4.529104,-10.317297
284000,2.188300,-0.897826,8.738836,1.308852,5.384066,-10.943251
288000,2.303222,-0.888249,8.714894,1.064577,5.857348,-11.630274
292000,2.379837,-0.835576,8.813056,0.743966,6.040555,-12.073022
296000,2.547431,-0.823605,8.863335,1.079844,6.330631,-12.775312
300000,2.444480,-0.845153,8.961497,1.751600,6.361165,-13.645541
304000,2.652776,-0.787692,8.839393,1.995875,6.147425,-14.500503
308000,2.743755,-0.766145,8.829816,2.576027,6.162692,-15.920350
312000,2.767697,-0.754174,8.880095,2.728699,5.506203,-17.416533
316000,2.741361,-0.667982,8.774749,3.064577,4.239028,-18.653173
320000,2.705448,-0.756568,8.817844,3.430989,2.895516,-20.225693
324000,2.712631,-0.749385,8.817844,3.965340,2.269562,-21.202791
328000,2.652776,-0.830788,8.686164,4.347020,2.483302,-22.057755
332000,2.566584,-0.768539,8.482656,4.255417,1.139791,-22.836380
336000,2.609680,-0.773327,8.635885,4.056943,-0.783873,-23.584471
340000,2.664747,-0.809240,8.621520,3.675264,-0.677003,-24.622639
344000,2.643199,-0.811634,8.568848,3.263050,-1.745705,-25.431799
348000,2.571373,-0.866701,8.501810,2.988241,-2.631201,-25.844013
352000,2.604892,-0.914585,8.564059,2.362287,-2.860209,-26.485235
356000,2.564190,-0.885855,8.813056,1.522592,-2.615934,-26.821114
360000,2.650381,-0.900220,8.916007,1.522592,-2.478530,-27.431799
364000,2.712631,-0.878672,9.009381,1.629462,-1.547232,-27.538670
368000,2.801216,-0.931344,9.004593,2.026409,0.590173,-28.027220
372000,2.882619,-0.885855,9.121908,1.644730,2.987119,-28.424166
376000,3.021482,-0.828394,9.167398,1.400455,4.819180,-29.202791
380000,2.975993,-0.869095,9.174581,1.675264,7.384066,-29.798212
384000,3.050213,-0.916979,9.258378,2.484425,9.017653,-30.454700
388000,3.165135,-0.890643,9.311050,3.308852,11.155058,-31.233326
392000,3.265691,-0.890643,9.212888,3.369921,12.315363,-32.332565
396000,3.318364,-0.849942,9.064447,3.583661,13.322997,-33.340199
400000,3.394978,-0.933739,9.011775,3.766867,13.781012,-34.927982
404000,3.371036,-0.974440,9.083601,3.873737,13.078722,-36.454700
408000,3.402161,-0.936133,9.078813,4.576027,11.399332,-37.905083
412000,3.332729,-1.000776,8.894460,5.278317,10.498569,-39.431801
416000,3.289633,-1.058237,8.923190,5.461524,8.880248,-40.607372
420000,3.368642,-1.060631,8.844181,5.736333,7.811547,-41.981419
424000,3.423708,-0.995988,8.793902,5.843203,7.231394,-43.584473
428000,3.462016,-0.933739,8.726865,5.690531,6.361165,-45.233326
432000,3.552995,-0.948104,8.631097,5.919539,5.139791,-47.187527
436000,3.526659,-0.943315,8.848969,6.392821,3.933684,-49.370731
440000,3.478775,-0.964863,8.657434,6.545493,3.185592,-51.111191
444000,3.500323,-1.036689,8.786720,6.652363,3.185592,-53.263863
448000,3.325546,-1.079785,8.896853,7.064577,2.727577,-54.897449
452000,3.280056,-1.197101,9.030929,7.568394,1.964218,-56.790577
456000,3.150769,-1.285686,9.059659,9.140913,0.987119,-58.195160
460000,3.045424,-1.285686,9.023746,10.194348,-0.249522,-59.859280
464000,2.954445,-1.381454,8.973468,10.545493,-1.531965,-61.263863
468000,2.834735,-1.458069,8.947132,11.186714,-2.600667,-62.256226
472000,2.815581,-1.515530,8.894460,11.827936,-3.150285,-63.279129
476000,2.760514,-1.522712,8.791509,11.125646,-4.707537,-64.500504
480000,2.719813,-1.575385,8.801085,11.034042,-5.669369,-65.126457
484000,2.726996,-1.553837,8.829816,11.049310,-5.028148,-66.011955
488000,2.674323,-1.577779,8.848969,10.514958,-3.730438,-66.729507
492000,2.631228,-1.587356,8.743625,9.904272,-1.669369,-67.279129
496000,2.705448,-1.644817,8.813056,9.415722,0.147424,-67.767677
500000,2.750938,-1.680730,9.011775,8.835569,2.406966,-68.164627
504000,2.604892,-1.716643,8.956709,8.881371,5.322997,-68.653175
508000,2.434903,-1.798046,8.935161,9.003509,7.750478,-69.355461
512000,2.305616,-1.812411,8.810662,8.774501,9.338264,-69.401268
516000,2.284068,-1.793257,8.710106,8.423356,11.155058,-69.447067
520000,2.226608,-1.893813,8.659827,8.499692,12.040554,-69.737144
524000,2.353500,-1.826776,8.683769,8.591294,11.261928,-69.981415
528000,2.521094,-1.891419,8.698134,9.049310,9.689409,-71.401268
532000,2.659958,-1.771709,8.746018,9.461524,7.567272,-73.218056
536000,2.794033,-1.659182,8.774749,10.392821,5.429867,-74.882179
540000,2.901772,-1.644817,8.825027,11.263050,2.513837,-77.294395
544000,2.980781,-1.577779,8.865729,11.675264,0.254295,-79.553940
548000,3.155558,-1.608904,9.074024,12.102745,-1.012881,-81.966148
552000,3.351882,-1.572991,9.126697,12.728699,-1.165553,-84.378365
556000,3.478775,-1.501164,9.198523,12.789767,-1.196087,-87.187523
560000,3.538630,-1.592144,9.081207,13.461523,-0.463263,-90.027222
564000,3.339911,-1.592144,9.346964,14.759233,-1.669369,-92.607368
568000,3.241749,-1.632846,9.509769,16.011143,-0.692270,-94.851646
572000,3.088520,-1.651999,9.356541,16.713432,2.315363,-95.187523
576000,2.861071,-1.759738,9.212888,17.324120,4.605440,-96.744774
580000,2.887407,-1.783680,9.066842,17.507326,8.177958,-97.156990
584000,2.480393,-1.855506,8.975863,16.499691,8.803913,-97.263863
588000,2.267309,-1.889025,8.889671,16.667631,10.101623,-98.225693
592000,2.049437,-1.860295,8.997410,16.591295,11.109256,-97.248596
596000,1.869871,-1.857901,8.995016,16.408089,11.704676,-96.332565
600000,2.051831,-1.769315,8.923190,15.889005,13.490935,-95.798210
604000,2.061408,-1.685518,8.772355,15.507325,16.040554,-93.966148
608000,2.166753,-1.606509,8.525752,15.003509,17.445133,-93.569206
612000,2.310405,-1.493982,8.566454,14.652363,18.712309,-93.584473
616000,2.643199,-1.388637,8.271967,14.072210,19.948952,-93.721878
620000,2.920926,-1.276109,8.444349,12.453890,20.910784,-95.737144
624000,3.490746,-1.182736,8.599973,11.598928,22.086355,-96.836380
628000,3.701436,-1.122881,8.525752,11.278317,23.918417,-100.683708
632000,3.794810,-1.158794,8.413225,11.721066,24.758112,-103.813477
636000,3.588908,-1.187524,8.324639,11.858470,24.635973,-107.233330
640000,3.284845,-1.259350,7.982268,11.736333,24.040554,-109.676071
644000,2.947262,-1.321599,7.836222,10.957706,22.620707,-111.569206
648000,2.731784,-1.431733,7.714118,9.659997,19.750477,-113.477600
652000,2.482787,-1.520318,7.886500,9.461524,14.681775,-114.912712
656000,2.164358,-1.551443,8.087613,10.728700,9.216126,-115.844017
660000,1.975216,-1.572991,7.977480,10.957706,4.284829,-116.653175
664000,2.111686,-1.580173,8.090008,10.514958,0.880249,-117.218056
668000,2.439692,-1.582567,8.415619,10.637096,-0.188453,-118.271492
672000,2.506729,-1.537078,8.528147,10.972974,-0.234255,-120.011955
676000,2.430115,-1.577779,8.669404,11.415722,-1.028148,-121.538673
680000,2.339135,-1.726219,8.880095,11.995874,-0.890743,-122.668442
684000,2.169147,-1.786075,8.741230,12.408089,1.338264,-123.691345
688000,2.006341,-1.824382,8.662222,11.736333,3.658875,-124.210426
692000,1.860295,-1.877054,8.580819,10.972974,6.010020,-124.561569
696000,1.786075,-1.941698,8.700529,9.766868,8.849714,-124.332565
700000,1.810017,-1.958457,8.810662,8.438622,11.597806,-124.515770
704000,1.788469,-1.920150,8.942344,7.934806,14.758111,-124.622643
708000,1.529895,-1.953669,8.920795,7.629462,17.674141,-124.103554
712000,1.429338,-1.987187,8.846576,7.553127,20.086355,-123.233330
716000,1.438915,-1.960851,8.633492,7.217249,22.040554,-122.500504
720000,1.611298,-1.819593,8.633492,6.026409,25.918417,-122.302032
724000,1.577779,-1.869871,8.451532,5.018775,27.811546,-122.393631
728000,1.649605,-1.886631,8.353370,5.140913,26.956585,-122.500504
732000,1.680730,-1.862689,8.532935,5.263051,25.017653,-123.523399
736000,1.826776,-1.881842,8.607155,5.797401,22.681776,-124.973785
740000,1.776498,-1.817199,8.626308,6.301218,20.132156,-126.347832
744000,1.893813,-1.853112,8.722076,6.835569,18.223761,-127.935616
748000,1.865083,-1.915361,8.583213,7.675264,16.498569,-129.920349
752000,1.687912,-1.936909,8.420407,8.285952,14.162691,-131.386002
756000,1.522712,-2.068590,8.638280,8.453890,11.689409,-132.592102
760000,1.333570,-2.224213,8.609550,8.285952,10.483302,-132.836380
764000,1.110910,-2.193089,8.549694,8.148546,10.010019,-133.401260
768000,1.012747,-2.296039,8.429984,7.476791,9.964218,-133.202789
772000,0.995988,-2.303222,8.391677,6.270684,10.025287,-132.637909
776000,1.029507,-2.303222,8.403648,4.759233,11.002386,-132.363098
780000,1.235408,-2.336741,8.561666,3.003508,13.414599,-132.363098
784000,1.376666,-2.310405,8.465898,1.889004,15.964218,-132.607376
788000,1.491588,-2.243367,8.686164,0.972974,19.185593,-133.431793
792000,1.376666,-2.334347,8.834604,0.224882,21.811546,-134.439438
796000,1.295263,-2.372654,8.978256,0.316485,24.055820,-134.943253
800000,1.182736,-2.377442,8.777143,0.759233,26.803913,-135.309662
804000,1.089362,-2.355895,8.750807,0.209615,28.162691,-135.966156
808000,1.051055,-2.442086,8.832211,0.011142,29.384066,-136.668442
812000,0.720655,-2.521094,8.791509,0.087478,29.842081,-136.790573
816000,0.600945,-2.657564,8.779537,0.560760,28.788645,-137.050125
820000,0.500388,-2.662352,8.643068,1.064577,28.010019,-137.462341
824000,0.361524,-2.700660,8.576031,0.850837,27.628340,-137.492874
828000,0.294487,-2.667141,8.724471,0.438623,27.231394,-137.080658
832000,0.275333,-2.734178,8.635885,1.140913,28.284828,-136.500504
836000,0.304064,-2.650381,8.712500,1.415722,29.032921,-136.592102
840000,0.505177,-2.657564,8.554482,1.690531,29.506203,-136.469971
844000,0.517148,-2.681506,8.415619,1.950073,30.116890,-137.050125
848000,0.598550,-2.638410,8.374918,2.118012,30.147425,-137.553940
852000,0.672771,-2.686294,8.164227,2.133279,30.498569,-138.851654
856000,0.845153,-2.736573,8.123527,2.026409,31.353531,-140.576843
860000,0.732626,-2.700660,7.905654,1.415722,32.010021,-142.317291
864000,0.493206,-2.691083,7.675811,-0.248400,31.933685,-144.210419
868000,0.146046,-2.705448,7.747637,-1.668247,31.658875,-145.126450
872000,-0.011971,-2.657564,7.795521,-2.874354,31.948952,-145.111191
876000,-0.227449,-2.628834,7.718906,-3.866720,32.406967,-144.989044
880000,-0.380678,-2.669535,7.735666,-4.828553,33.521469,-144.637909
884000,-0.428562,-2.504335,7.366959,-6.080462,34.116890,-144.332565
888000,-0.373495,-2.530671,7.429208,-8.080462,34.300095,-144.088287
892000,-0.486023,-2.494758,7.381324,-9.103362,35.338264,-143.477600
896000,-0.433351,-2.513912,7.496245,-10.095729,36.544373,-143.263855
900000,-0.428562,-2.504335,7.369353,-11.332370,37.032921,-142.790573
904000,-0.447716,-2.494758,7.685388,-11.729317,38.910782,-141.950882
908000,-0.265756,-2.379837,7.450756,-12.507943,42.101624,-142.149353
912000,-0.189142,-2.396596,7.331046,-13.729316,44.223759,-143.202789
916000,-0.282516,-2.468422,7.402872,-14.202600,45.674141,-143.706604
920000,-0.586579,-2.552219,7.443573,-14.248401,44.727577,-144.927979
924000,-0.809240,-2.643199,7.541735,-14.736949,42.773376,-145.752411
928000,-1.249773,-2.837129,7.268796,-13.133897,41.322998,-146.164627
932000,-1.862689,-2.904167,6.897695,-13.729316,33.948952,-146.225693
936000,-2.319981,-2.978387,6.995857,-14.965957,28.483301,-144.744781
940000,-2.889802,-3.189077,7.335834,-14.935424,22.315363,-141.889816
944000,-2.889802,-3.213019,7.649475,-15.210233,15.948952,-139.019592
948000,-2.726996,-3.162740,8.180987,-15.668248,12.040554,-136.515762
952000,-2.604892,-3.191471,8.535329,-15.103362,11.017653,-134.134094
956000,-2.789245,-3.320758,8.678981,-13.362905,11.124523,-131.080658
960000,-2.894590,-3.342306,8.705317,-11.652981,13.628340,-127.844017
964000,-2.932897,-3.251326,8.528147,-11.362904,17.765745,-124.592102
968000,-2.940080,-3.311181,8.552089,-11.164431,21.781012,-121.630272
972000,-2.968810,-3.232172,8.640674,-10.278934,25.811546,-118.683708
976000,-2.949656,-3.165135,8.532935,-9.225499,28.269562,-115.752411
980000,-2.952051,-3.110068,8.511387,-7.958323,30.284828,-113.355461
984000,-2.992752,-3.122039,8.207323,-6.584278,32.666508,-110.943253
988000,-3.143587,-3.040636,7.809886,-5.759851,32.910782,-108.882179
992000,-3.383007,-2.896984,7.577648,-5.408706,30.361164,-106.805847
996000,-3.337517,-2.849100,7.565677,-4.935423,27.506203,-104.698975
1000000,-3.150769,-2.667141,7.750031,-4.813286,25.521469,-103.187523
1004000,-3.189077,-2.566584,7.589619,-4.828553,22.147425,-102.347832
1008000,-3.136404,-2.389413,7.429208,-4.248401,18.635973,-100.821114
1012000,-3.112462,-2.312799,7.319075,-3.912522,15.353531,-100.561569
1016000,-3.201048,-2.236184,7.120356,-4.202599,13.277195,-100.057755
1020000,-3.466804,-2.205060,6.983886,-5.088095,11.918416,-98.622643
1024000,-3.495534,-2.104503,6.900089,-6.904889,11.124523,-96.210426
1028000,-3.598485,-2.176329,6.758832,-8.675881,11.246661,-94.729507
1032000,-3.691859,-2.114080,6.679823,-10.278934,10.742844,-92.531036
1036000,-3.785233,-2.035071,6.543353,-12.340003,10.315363,-90.393631
1040000,-3.734955,-2.059013,6.639122,-14.675881,9.200859,-88.363098
1044000,-3.821146,-1.917756,6.607996,-16.889620,9.032920,-86.332565
1048000,-4.163517,-1.958457,6.593631,-19.286568,7.521471,-84.057755
1052000,-4.189853,-1.836353,6.687006,-22.141529,4.666509,-81.767677
1056000,-4.388572,-1.723825,7.031770,-24.263666,3.032921,-79.172256
1060000,-4.355053,-1.654393,7.304709,-26.294201,1.948951,-76.500504
1064000,-4.350265,-1.553837,7.510611,-27.240767,1.552005,-73.859283
1068000,-4.225766,-1.522712,7.618350,-27.912521,1.460402,-71.111191
1072000,-4.098873,-1.489193,7.790732,-28.340004,1.078722,-68.882179
1076000,-3.809175,-1.388637,8.015787,-27.637712,0.773379,-66.882179
1080000,-3.756502,-1.355118,8.243237,-27.362904,0.055821,-65.477600
1084000,-3.734955,-1.266533,8.544906,-26.248400,-1.119751,-63.813480
1088000,-3.742137,-1.273715,8.657434,-25.210232,-1.974713,-62.927982
1092000,-3.804387,-1.276109,8.899248,-23.988857,-2.783873,-61.019585
1096000,-3.778050,-1.233014,9.085996,-22.569010,-3.593034,-59.294395
1100000,-3.833117,-1.283292,9.246407,-21.714048,-4.325858,-57.340199
1104000,-3.813963,-1.283292,9.504981,-20.874353,-5.425095,-55.156990
1108000,-3.945644,-1.168370,9.612720,-20.553743,-5.486163,-53.004318
1112000,-3.957615,-1.168370,9.660604,-20.278934,-5.974713,-50.424168
1116000,-3.861847,-1.106121,9.509769,-19.408705,-5.806774,-48.195160
1120000,-3.651158,-1.137246,9.576807,-18.675880,-5.577766,-46.073021
1124000,-3.536236,-0.995988,9.550470,-17.897255,-3.562499,-43.996685
1128000,-3.399766,-1.015141,9.461885,-17.225498,-1.364026,-42.332561
1132000,-3.205836,-1.053449,9.572019,-16.553743,0.406966,-40.851646
1136000,-3.114856,-1.005565,9.694122,-15.836186,2.712310,-39.324928
1140000,-2.992752,-0.948104,9.684546,-15.347636,5.368799,-38.683708
1144000,-3.043030,-0.945710,9.531317,-14.843820,7.277195,-38.118824
1148000,-2.880225,-0.938527,9.260772,-14.004125,9.017653,-37.721874
1152000,-2.844312,-0.912191,9.141062,-13.439240,10.788646,-37.034855
1156000,-2.782062,-0.976834,9.246407,-12.981225,9.781012,-37.034855
1160000,-2.671929,-1.048660,9.277532,-12.431607,8.223760,-37.202793
1164000,-2.734178,-1.036689,9.133880,-11.820919,7.139791,-37.309662
1168000,-2.789245,-1.003170,9.126697,-11.805653,5.781013,-37.431801
1172000,-2.885013,-1.036689,9.004593,-11.897255,4.941318,-37.080654
1176000,-2.942474,-1.142034,8.810662,-12.034659,6.330631,-36.515770
1180000,-3.102885,-1.094150,8.494628,-12.691148,3.994753,-36.088287
1184000,-3.301604,-1.137246,8.626308,-12.889621,-1.211354,-34.805847
1188000,-3.303998,-1.177947,9.004593,-12.141530,-3.822041,-33.218060
1192000,-3.356671,-1.221043,9.198523,-11.042294,-3.348759,-31.034853
1196000,-3.392584,-1.187524,9.009381,-10.034659,-2.707537,-28.821114
1200000,-3.402161,-1.261744,8.841787,-9.164431,-0.432728,-26.302029
1204000,-3.471592,-1.323994,8.755595,-8.248401,2.040554,-23.538670
1208000,-3.387795,-1.321599,8.609550,-7.927790,3.185592,-21.004318
1212000,-3.229778,-1.266533,8.619126,-7.820919,2.498570,-18.378365
1216000,-2.829947,-1.256956,8.456321,-8.309469,3.032921,-16.714243
1220000,-2.461239,-1.304840,8.353370,-8.950690,5.093989,-15.416533
1224000,-2.140416,-1.304840,8.547300,-9.439240,7.597806,-14.454701
1228000,-2.054225,-1.338359,8.695741,-9.836186,9.796279,-13.905083
1232000,-1.920150,-1.438915,8.774749,-10.599545,10.116890,-13.370732
1236000,-1.716643,-1.474828,9.052477,-11.622446,9.948951,-13.034854
1240000,-1.637634,-1.553837,9.174581,-11.820919,10.376431,-13.034854
1244000,-1.683124,-1.618480,9.339781,-11.347637,10.147424,-13.111190
1248000,-1.704672,-1.752556,9.662998,-10.294202,9.429867,-13.050121
1252000,-1.683124,-1.891419,9.718064,-8.599545,8.956584,-12.973785
1256000,-1.719037,-2.027889,9.976639,-6.401072,8.116890,-13.263862
1260000,-1.628057,-2.051831,9.909601,-4.004126,6.803913,-13.553938
1264000,-1.788469,-2.133234,9.991004,-2.141530,5.353531,-13.737144
1268000,-1.936909,-2.291251,9.856929,0.392821,2.406966,-13.508137
1272000,-2.147599,-2.370260,9.892841,2.621829,0.697043,-13.202793
1276000,-2.360683,-2.468422,9.727641,3.827936,-0.570133,-12.347831
1280000,-2.511518,-2.473210,9.528923,4.789768,-2.142652,-10.821114
1284000,-2.580950,-2.446874,9.421184,5.644730,-2.280056,-9.187526
1288000,-2.511518,-2.485181,9.174581,6.530226,-2.447995,-7.248594
1292000,-2.398990,-2.415750,8.868123,7.095111,-2.280056,-5.447067
1296000,-2.255338,-2.284068,8.427590,6.255417,-0.906011,-3.477602
1300000,-1.929727,-2.207454,8.214506,4.148547,1.536737,-2.454701
1304000,-1.754950,-2.183512,8.276755,2.224883,3.903150,-1.187526
1308000,-1.599327,-2.154782,8.164227,0.484424,6.162692,-0.073022
1312000,-1.467646,-2.078167,8.125920,-1.317102,7.155058,0.446062
1316000,-1.340753,-2.037466,8.142680,-2.828552,8.239027,1.010948
1320000,-1.175553,-1.946486,8.231265,-4.309469,8.147424,0.781940
1324000,-1.067814,-1.896208,8.425196,-4.782751,8.086355,0.705604
1328000,-1.084573,-1.819593,8.607155,-4.813286,7.597806,0.308658
1332000,-0.883460,-1.800440,8.599973,-4.294202,5.384066,-0.408900
1336000,-0.876278,-1.836353,8.592790,-3.301835,3.796279,-0.760045
1340000,-0.957681,-1.821988,8.638280,-2.294202,1.093989,-1.385999
1344000,-1.051055,-1.805228,8.669404,-1.286568,-1.470896,-2.347831
1348000,-1.115698,-1.869871,8.647857,-0.309469,-4.112117,-2.164625
1352000,-1.242591,-1.886631,8.635885,0.621829,-5.715171,-1.721877
1356000,-1.197101,-1.800440,8.446744,0.728699,-6.249522,-0.958518
1360000,-1.070208,-1.786075,8.461109,0.255417,-5.211354,-0.164625
1364000,-0.948104,-1.697489,8.422802,-0.248400,-3.470896,0.507131
1368000,-0.775721,-1.620875,8.482656,-1.103362,-1.119751,1.499497
1372000,-0.749385,-1.673547,8.372523,-2.049927,0.773379,1.972780
1376000,-0.665588,-1.661576,8.286332,-2.935423,2.239028,2.629268
1380000,-0.572214,-1.692701,8.312668,-3.072828,3.506203,2.873543
1384000,-0.418985,-1.556231,8.204929,-3.423972,4.284829,3.133085
1388000,-0.320823,-1.537078,8.257602,-3.943056,4.834447,2.995681
1392000,-0.189142,-1.534683,8.453926,-4.065194,5.811547,3.117818
1396000,-0.150835,-1.508347,8.437167,-3.958324,5.506203,2.430795
1400000,-0.148441,-1.486799,8.511387,-3.515576,4.544371,1.835375
1404000,-0.040701,-1.465251,8.542512,-3.011759,2.651241,1.117818
1408000,0.028730,-1.455675,8.604761,-2.706415,0.590173,-0.347831
1412000,-0.081403,-1.484405,8.676587,-2.385804,-1.028148,-0.927984
1416000,-0.119710,-1.527501,8.707711,-1.668247,-1.928911,-1.615006
1420000,-0.177171,-1.467646,8.588001,-1.423972,-2.203721,-1.905083
1424000,-0.299275,-1.448492,8.530540,-0.645346,-1.608301,-1.706609
1428000,-0.440533,-1.493982,8.485051,-0.370538,-1.165553,-1.447067
1432000,-0.421380,-1.426944,8.358158,-0.385804,-0.570133,-1.004319
1436000,-0.581791,-1.493982,8.331821,-0.584278,0.071089,-0.714243
1440000,-0.588974,-1.417367,8.159439,-1.133896,0.422234,0.049116
1444000,-0.612916,-1.414973,8.104373,-2.019392,0.315363,0.430795
1448000,-0.478840,-1.338359,7.955932,-2.920156,0.147424,0.690337
1452000,-0.476446,-1.292869,7.790732,-3.866720,-0.188453,0.812474
1456000,-0.459687,-1.273715,7.852982,-4.523210,-0.890743,1.072016
1460000,-0.488417,-1.228225,7.848193,-6.217866,-1.791507,0.888810
1464000,-0.536301,-1.288081,8.116343,-7.408706,-2.417461,0.552933
1468000,-0.524330,-1.400608,8.384495,-7.820919,-1.989980,0.873543
1472000,-0.565032,-1.465251,8.437167,-7.500309,-1.531965,1.148352
1476000,-0.493206,-1.525106,8.487445,-7.088095,-0.860209,1.209421
1480000,-0.495600,-1.465251,8.556877,-6.752217,-0.371659,1.102551
1484000,-0.486023,-1.596933,8.753201,-5.897255,0.193226,0.995681
1488000,-0.548272,-1.592144,8.870518,-4.248401,0.452768,0.995681
1492000,-0.560243,-1.692701,8.793902,-2.675881,-0.127385,0.843009
1496000,-0.586579,-1.661576,8.611943,-1.591912,0.330631,1.255223
1500000,-0.481235,-1.742979,8.537724,-0.630080,1.643608,1.087284
1504000,-0.464475,-1.723825,8.518570,-0.813286,0.376432,0.873543
1508000,-0.316035,-1.656788,8.561666,-1.149163,0.681776,0.583467
1512000,-0.354342,-1.671153,8.396465,-1.393438,0.574905,0.476597
1516000,-0.416591,-1.661576,8.350976,-2.263667,-0.432728,0.354459
1520000,-0.359130,-1.635240,8.403648,-2.721682,-1.073950,0.217055
1524000,-0.366313,-1.601721,8.365341,-3.088094,-1.211354,0.293391
1528000,-0.337582,-1.568202,8.406042,-3.286568,-0.906011,0.629268
1532000,-0.244209,-1.623269,8.422802,-3.759850,-1.669369,0.232322
1536000,-0.189142,-1.558625,8.501810,-4.889622,-1.913644,-0.286762
1540000,-0.181959,-1.532289,8.722076,-5.576645,-2.386927,-1.172258
1544000,-0.181959,-1.572991,8.767567,-5.775118,-2.677003,-1.676075
1548000,-0.296881,-1.611298,8.793902,-5.927790,-3.974713,-2.302029
1552000,-0.430956,-1.592144,8.875306,-5.561378,-4.188453,-2.622640
1556000,-0.402226,-1.572991,9.016563,-5.225499,-2.921278,-2.424167
1560000,-0.428562,-1.529895,9.160215,-4.538477,-1.654102,-2.286762
1564000,-0.454898,-1.539472,9.081207,-3.347636,-0.906011,-2.500503
1568000,-0.466869,-1.486799,9.062054,-2.904888,-1.058682,-2.958518
1572000,-0.474052,-1.505953,9.141062,-2.675881,-1.180820,-3.401266
1576000,-0.663194,-1.561020,9.121908,-1.958324,-1.333492,-3.553938
1580000,-0.876278,-1.527501,9.081207,-0.645346,-1.501431,-3.340197
1584000,-1.003170,-1.491588,8.947132,-0.156797,-1.211354,-2.729510
1588000,-1.051055,-1.532289,8.951921,0.255417,-0.295324,-1.813480
1592000,-1.012747,-1.493982,8.827422,0.484424,0.742844,-1.004319
1596000,-0.926556,-1.412579,8.518570,0.316485,0.712310,-0.042487
1600000,-0.658405,-1.343147,8.355764,-0.248400,1.063455,0.125452
1604000,-0.354342,-1.319205,8.310274,-1.256034,1.353531,0.155986
1608000,-0.248997,-1.319205,8.271967,-2.523209,0.223760,-0.592106
1612000,-0.198719,-1.333570,8.346188,-3.011759,1.200860,-1.065388
1616000,-0.229843,-1.400608,8.439561,-3.546110,0.697043,-1.615006
1620000,-0.287304,-1.443704,8.482656,-4.095729,0.437501,-2.073022
1624000,-0.387861,-1.417367,8.638280,-4.355270,-0.051049,-2.378365
1628000,-0.483629,-1.525106,8.779537,-4.340003,-0.692270,-2.195159
1632000,-0.598550,-1.594538,8.913613,-3.759850,-1.593034,-2.332564
1636000,-0.584185,-1.589750,9.011775,-4.019392,-1.867843,-2.195159
1640000,-0.608127,-1.549049,9.062054,-3.927789,-2.081583,-1.782945
1644000,-0.545878,-1.625663,9.131485,-3.133896,-1.684637,-1.691342
1648000,-0.557849,-1.580173,9.117120,-2.217866,-1.425095,-1.645541
1652000,-0.543484,-1.620875,9.150639,-1.790385,-1.516698,-1.630274
1656000,-0.524330,-1.635240,9.030929,-1.393438,-0.692270,-1.752411
1660000,-0.512359,-1.742979,8.916007,-0.431606,0.116890,-1.508136
1664000,-0.500388,-1.752556,8.798691,-0.294202,-0.386927,-1.737144
1668000,-0.617704,-1.783680,8.896853,0.148546,-1.028148,-1.981419
1672000,-0.591368,-1.790863,8.963891,0.774501,-1.699904,-2.042487
1676000,-0.632069,-1.860295,8.836999,1.751600,-2.844942,-2.027220
1680000,-0.653617,-1.831564,8.856153,2.591295,-3.379293,-1.950884
1684000,-0.550666,-1.800440,8.877700,2.820302,-4.173186,-2.118823
1688000,-0.612916,-1.824382,8.702923,3.308852,-4.341125,-2.302029
1692000,-0.675165,-1.802834,8.609550,3.339386,-4.707537,-2.195159
1696000,-0.658405,-1.774103,8.564059,3.293585,-5.180820,-2.011953
1700000,-0.778116,-1.745373,8.494628,2.728699,-5.028148,-1.645541
1704000,-0.761356,-1.771709,8.477868,2.530226,-4.341125,-1.233327
1708000,-0.799663,-1.728614,8.374918,2.209615,-3.364026,-1.263861
1712000,-0.775721,-1.742979,8.295909,1.889004,-2.264789,-0.317297
1716000,-0.857124,-1.742979,8.348581,1.675264,-0.646469,0.339192
1720000,-0.909797,-1.716643,7.987057,1.278317,0.193226,1.102551
1724000,-0.967257,-1.561020,7.867347,0.377554,0.330631,2.033848
1728000,-0.816423,-1.716643,7.884106,-0.782751,0.284829,2.323925
1732000,-0.694318,-1.647211,7.855376,-1.881988,0.040554,2.614001
1736000,-0.521936,-1.592144,7.960721,-2.981224,-0.478530,2.430795
1740000,-0.469264,-1.625663,7.917625,-3.790385,-0.814408,1.957513
1744000,-0.500388,-1.702277,8.013393,-4.202599,-1.501431,1.820108
1748000,-0.663194,-1.671153,7.939173,-4.355270,-2.646469,1.896444
1752000,-0.711078,-1.582567,8.051701,-4.492675,-3.318224,2.171253
1756000,-0.837971,-1.553837,8.044518,-4.904889,-3.516698,2.858276
1760000,-0.708684,-1.520318,8.142680,-6.126263,-3.440362,3.468963
1764000,-0.490811,-1.561020,8.291121,-6.782751,-2.493797,4.064383
1768000,-0.320823,-1.561020,8.508993,-6.782751,-1.547232,4.155986
1772000,-0.337582,-1.549049,8.482656,-6.584278,-1.196087,3.865910
1776000,-0.205901,-1.611298,8.468291,-6.675881,-0.035782,3.621635
1780000,-0.318429,-1.589750,8.487445,-6.355270,0.239028,3.285757
1784000,-0.407014,-1.623269,8.506598,-5.836186,0.025287,2.980413
1788000,-0.509965,-1.762132,8.542512,-5.057561,-0.447995,3.209421
1792000,-0.524330,-1.704672,8.576031,-4.675881,-1.715171,2.858276
1796000,-0.435745,-1.616086,8.475474,-4.782751,-2.341125,2.965146
1800000,-0.110133,-1.625663,8.437167,-5.332370,-1.593034,2.339192
1804000,0.062249,-1.625663,8.444349,-5.546110,-1.119751,1.270490
1808000,0.081403,-1.707066,8.350976,-5.393438,-1.715171,0.232322
1812000,0.079009,-1.661576,8.319851,-5.103362,-2.768606,-1.095922
1816000,-0.110133,-1.800440,8.370130,-4.889622,-3.974713,-1.874548
1820000,-0.287304,-1.783680,8.343793,-4.569011,-5.073949,-2.561571
1824000,-0.608127,-1.833959,8.322245,-4.294202,-6.615934,-2.744777
1828000,-0.605733,-1.958457,8.487445,-4.065194,-8.280057,-2.607373
1832000,-0.701501,-1.960851,8.619126,-3.637713,-8.921278,-2.179892
1836000,-0.749385,-1.999158,8.619126,-4.202599,-9.226622,-1.538671
1840000,-0.727837,-1.999158,8.540117,-4.889622,-8.661736,-0.729510
1844000,-0.768539,-2.051831,8.255207,-5.912522,-7.638835,0.247589
1848000,-0.663194,-2.032677,8.159439,-7.347637,-7.196087,0.766673
1852000,-0.541090,-2.037466,8.281544,-8.813286,-6.142652,1.331558
1856000,-0.519542,-2.070984,8.391677,-10.065194,-5.287690,1.453696
1860000,-0.514753,-2.030283,8.468291,-10.691149,-3.364026,1.759039
1864000,-0.627281,-2.056619,8.611943,-11.103362,-2.295324,2.033848
1868000,-0.723049,-1.999158,8.607155,-10.950690,-0.646469,2.934612
1872000,-0.670376,-1.951274,8.810662,-10.965958,1.399333,3.713238
1876000,-0.648829,-1.941698,8.798691,-10.675881,3.811547,4.812475
1880000,-0.502782,-1.877054,8.832211,-10.446874,5.307730,5.545299
1884000,-0.270545,-1.807622,8.908825,-10.324736,5.872615,5.255223
1888000,-0.038307,-1.857901,8.956709,-9.927790,6.483303,5.163620
1892000,-0.090980,-1.869871,8.944737,-8.767485,6.208493,4.476597
1896000,-0.074220,-1.817199,8.925584,-7.958323,5.384066,3.835375
1900000,0.126893,-1.771709,9.009381,-7.286569,4.483303,2.995681
1904000,0.186748,-1.800440,9.239224,-6.065194,4.468035,2.033848
1908000,0.081403,-1.810017,9.239224,-4.599545,3.903150,1.499497
1912000,-0.052672,-1.766921,9.251195,-2.859087,2.529104,0.705604
1916000,-0.033519,-1.738190,9.287108,-1.714049,1.246661,0.140719
1920000,-0.110133,-1.884237,9.397242,-0.691148,0.559638,-0.240961
1924000,-0.241814,-1.810017,9.382876,0.347020,-0.112117,-0.576838
1928000,-0.378284,-1.798046,9.325416,1.095111,-0.707537,-0.561571
1932000,-0.380678,-1.807622,9.275137,1.659997,-0.844942,-0.469968
1936000,-0.430956,-1.783680,9.136273,2.438623,0.071089,-0.134090
1940000,-0.562637,-1.735796,9.121908,2.453890,1.032921,0.507131
1944000,-0.464475,-1.671153,8.937555,2.240149,2.712310,0.919345
1948000,-0.457293,-1.644817,8.844181,1.751600,4.529104,1.499497
1952000,-0.354342,-1.647211,8.671799,1.385188,6.010020,1.911711
1956000,-0.378284,-1.616086,8.497022,0.759233,6.132157,1.804841
1960000,-0.416591,-1.596933,8.355764,0.056943,5.964219,1.865910
1964000,-0.375890,-1.565808,8.401254,-1.133896,5.307730,1.835375
1968000,-0.339977,-1.587356,8.207323,-2.355270,4.071089,1.697971
1972000,-0.313640,-1.666364,8.360553,-3.103362,2.620707,1.331558
1976000,-0.445322,-1.570596,8.408437,-3.744583,0.468035,1.041482
1980000,-0.447716,-1.757344,8.444349,-4.355270,-1.547232,0.873543
1984000,-0.459687,-1.843535,8.475474,-4.431606,-2.875476,0.736139
1988000,-0.648829,-1.733402,8.564059,-4.950690,-3.913644,0.766673
1992000,-0.526724,-1.759738,8.803479,-5.011759,-4.493797,0.873543
1996000,-0.390255,-1.841141,8.851364,-4.248401,-3.959446,0.537665
