time_us,ax,ay,az,gx,gy,gz
0,0.945710,-0.799663,8.911219,1.217249,0.269562,0.705604
4000,0.847547,-0.758962,8.793902,1.324119,0.620707,1.010948
8000,0.924162,-0.694318,8.683769,1.247783,1.170325,1.285757
12000,0.967257,-0.682347,8.621520,0.728699,1.170325,1.239955
16000,0.969652,-0.620098,8.525752,-0.049927,1.658875,1.362093
20000,1.079785,-0.562637,8.602366,-0.721682,1.689409,1.453696
24000,1.122881,-0.622492,8.585608,-0.920156,1.933684,1.072016
28000,1.096544,-0.562637,8.554482,-1.607178,1.567272,0.949879
32000,1.216254,-0.567426,8.578424,-2.630080,2.055821,0.888810
36000,1.240196,-0.615310,8.686164,-2.950690,3.322997,0.583467
40000,1.182736,-0.574608,8.746018,-2.904888,3.613073,0.247589
44000,1.192312,-0.620098,8.667010,-2.523209,3.338264,-0.210426
48000,1.091756,-0.555455,8.671799,-2.691148,2.697043,-0.286762
52000,1.120486,-0.632069,8.805874,-2.828552,1.887883,-0.698976
56000,1.070208,-0.665588,8.882488,-2.462140,1.414600,-0.698976
60000,1.053449,-0.639252,8.963891,-2.019392,0.926050,-0.744777
64000,1.158794,-0.639252,8.978256,-1.622446,0.666508,-1.141724
68000,1.146823,-0.694318,8.880095,-1.088094,1.429867,-1.401266
72000,1.118092,-0.653617,8.863335,-0.767484,1.384066,-1.813480
76000,1.252167,-0.706290,8.916007,-0.202598,1.368798,-2.210426
80000,1.247379,-0.598550,9.119514,0.102745,1.155058,-2.408900
84000,1.297657,-0.605733,9.085996,0.560760,1.719944,-2.973785
88000,1.146823,-0.641646,8.918402,1.201982,2.239028,-3.401266
92000,1.046266,-0.658405,8.734048,1.537859,2.315363,-3.462335
96000,0.936133,-0.706290,8.722076,1.247783,1.048188,-3.416533
100000,0.952892,-0.689530,8.805874,1.064577,0.177959,-3.202793
104000,0.995988,-0.730232,8.978256,1.018775,-0.432728,-3.050121
108000,1.101333,-0.756568,8.997410,1.217249,-0.951812,-2.836380
112000,1.139640,-0.761356,8.930372,1.721066,-0.783873,-2.821113
116000,1.158794,-0.723049,8.899248,1.782134,-0.280056,-2.866915
120000,1.209072,-0.720655,8.920795,1.629462,0.742844,-2.668442
124000,1.206678,-0.701501,8.810662,1.415722,1.445134,-2.866915
128000,1.142034,-0.790087,8.683769,0.927172,1.384066,-3.004319
132000,1.163582,-0.744597,8.705317,0.423356,1.735211,-2.943251
136000,1.146823,-0.656011,8.681376,0.118012,1.887883,-2.851648
140000,1.127669,-0.701501,8.652645,-0.110996,2.864982,-2.698976
144000,1.094150,-0.679953,8.523358,-0.446873,3.536737,-2.622640
148000,1.175553,-0.730232,8.645462,-0.981224,3.292463,-2.271495
152000,1.357512,-0.711078,8.525752,-0.996492,3.842081,-2.729510
156000,1.340753,-0.715866,8.532935,-1.179698,3.170325,-3.263861
160000,1.304840,-0.672771,8.492233,-1.454507,2.086356,-3.401266
164000,1.297657,-0.706290,8.508993,-1.393438,1.155058,-3.767678
168000,1.321599,-0.660800,8.528147,-1.194965,0.361165,-4.271495
172000,1.410185,-0.679953,8.556877,-1.271301,-0.310591,-4.668441
176000,1.417367,-0.634463,8.652645,-1.271301,-0.677003,-5.385999
180000,1.443704,-0.696713,8.611943,-0.798018,-1.608301,-5.889815
184000,1.374272,-0.699107,8.707711,-0.782751,-2.615934,-6.118823
188000,1.398214,-0.636858,8.844181,-0.446873,-2.707537,-6.653174
192000,1.486799,-0.758962,8.801085,-0.324736,-1.944179,-6.653174
196000,1.513135,-0.663194,9.071630,0.301218,-1.135018,-7.187525
200000,1.508347,-0.667982,9.083601,1.308852,0.529104,-7.492869
204000,1.570596,-0.694318,9.083601,2.102745,2.147424,-7.645541
208000,1.501164,-0.679953,9.052477,2.774501,3.811547,-8.073022
212000,1.412579,-0.706290,8.937555,3.201982,5.353531,-7.950884
216000,1.381454,-0.660800,8.774749,3.018775,6.300097,-7.844014
220000,1.400608,-0.677559,8.662222,2.667631,6.681776,-7.752411
224000,1.513135,-0.696713,8.664616,1.904272,6.483303,-7.905083
228000,1.575385,-0.677559,8.506598,0.942440,6.712310,-8.057755
232000,1.781286,-0.639252,8.530540,0.514959,6.529104,-8.653174
236000,1.699883,-0.723049,8.523358,-0.278934,5.338264,-9.156992
240000,1.778892,-0.639252,8.547300,-1.271301,3.689409,-9.950885
244000,1.754950,-0.708684,8.717288,-2.156797,2.193226,-10.439434
248000,1.812411,-0.775721,8.939949,-2.538476,1.277195,-10.912717
252000,1.745373,-0.787692,9.176975,-2.202598,0.803913,-11.187526
256000,1.800440,-0.845153,9.026140,-1.775118,0.391699,-11.370732
260000,1.759738,-0.826000,9.078813,-1.500308,0.498570,-11.462335
264000,1.929727,-0.849942,9.117120,-1.271301,1.429867,-11.828747
268000,1.984793,-0.842759,9.085996,-1.042293,1.903150,-12.118824
272000,2.032677,-0.816423,9.030929,-0.782751,2.208493,-12.698977
276000,1.987187,-0.780510,9.018958,-0.172064,2.330631,-13.187526
280000,2.027889,-0.775721,9.006987,0.408088,2.132157,-13.950885
284000,2.082955,-0.730232,8.927979,0.591295,2.086356,-14.073022
288000,2.176329,-0.746991,9.205706,0.820302,2.529104,-14.637908
292000,2.240973,-0.725443,9.198523,1.415722,3.475669,-15.233328
296000,2.255338,-0.694318,9.203311,2.011142,3.658875,-15.569205
300000,2.336741,-0.658405,8.978256,2.041676,3.552005,-16.592106
304000,2.415750,-0.639252,8.947132,2.194348,3.399333,-17.508135
308000,2.461239,-0.593762,8.985439,2.713432,3.521470,-18.134090
312000,2.513912,-0.581791,8.911219,2.805035,3.704677,-19.431799
316000,2.602497,-0.612916,8.954314,2.927173,3.933684,-20.439434
320000,2.557007,-0.536301,8.805874,3.125646,3.781013,-21.630274
324000,2.568978,-0.588974,8.860941,3.186715,3.490936,-22.668442
328000,2.580950,-0.615310,8.896853,3.140913,3.490936,-23.569204
332000,2.523489,-0.620098,8.856153,3.263050,3.811547,-24.378365
336000,2.466028,-0.636858,8.702923,3.385188,3.628341,-24.943251
340000,2.346318,-0.660800,8.662222,3.354653,1.857348,-25.630274
344000,2.430115,-0.644040,8.564059,3.034043,0.819180,-26.149357
348000,2.489970,-0.586579,8.597578,2.667631,-0.096850,-26.653173
352000,2.492364,-0.567426,8.542512,1.965340,-0.142652,-27.370731
356000,2.619257,-0.598550,8.549694,1.614195,-0.280056,-27.996685
360000,2.693477,-0.593762,8.394072,1.385188,-0.402194,-29.065388
364000,2.861071,-0.507571,8.523358,0.637096,-0.783873,-30.286762
368000,2.932897,-0.517148,8.597578,0.194348,0.055821,-31.508135
372000,2.944868,-0.521936,8.549694,0.087478,0.803913,-32.973785
376000,2.861071,-0.459687,8.429984,-0.126262,0.651241,-33.981419
380000,2.882619,-0.483629,8.528147,0.011142,0.849715,-34.989052
384000,2.820370,-0.481235,8.504205,-0.324736,1.292463,-35.706608
388000,2.748544,-0.476446,8.578424,-0.569010,1.384066,-36.393631
392000,2.918532,-0.409408,8.451532,0.087478,2.162692,-37.141724
396000,2.875436,-0.347159,8.190564,-0.798018,1.521470,-38.805847
400000,2.913743,-0.387861,8.473080,-1.454507,0.040554,-40.073021
404000,2.899378,-0.512359,8.544906,-1.256034,0.483302,-41.111191
408000,2.789245,-0.474052,8.530540,-1.423972,-0.585400,-41.813480
412000,2.911349,-0.438139,8.506598,-1.423972,-0.890743,-42.927982
416000,3.155558,-0.423774,8.798691,-1.485041,0.758111,-43.981419
420000,3.160346,-0.438139,8.760384,-0.920156,2.544371,-45.172256
424000,2.999935,-0.464475,8.633492,-0.920156,3.414600,-46.851646
428000,2.918532,-0.502782,8.611943,-0.385804,2.895516,-48.027218
432000,2.822764,-0.579397,8.576031,-0.462140,1.597806,-48.989052
436000,2.772485,-0.739808,8.880095,0.148546,0.666508,-50.179890
440000,2.638410,-0.763750,8.887277,1.079844,-0.020514,-50.561569
444000,2.511518,-0.730232,8.731653,1.751600,-1.455629,-51.263863
448000,2.614468,-0.749385,8.939949,2.759233,-2.554866,-51.767677
452000,2.458845,-0.881066,9.033323,3.476791,-3.150285,-52.531036
456000,2.521094,-0.914585,8.813056,4.102745,-3.730438,-53.065388
460000,2.564190,-0.955287,8.662222,4.179081,-5.608301,-53.813480
464000,2.683900,-0.964863,8.695741,4.072211,-6.417461,-54.668442
468000,2.774880,-0.945710,8.604761,3.568394,-6.951812,-55.660809
472000,2.827552,-0.950498,8.463503,3.278317,-7.745705,-56.744778
476000,2.911349,-1.031901,8.693346,3.064577,-7.745705,-57.782944
480000,2.961627,-1.007959,8.576031,2.545493,-6.554865,-58.821114
484000,2.911349,-1.103727,8.638280,1.889004,-6.020514,-59.676075
488000,2.887407,-1.139640,8.638280,1.140913,-4.814407,-60.714241
492000,2.808398,-1.132457,8.676587,0.484424,-3.287690,-61.248592
496000,2.861071,-1.185130,8.769960,0.072211,-1.577766,-61.935616
500000,2.827552,-1.173159,8.726865,-0.217866,0.315363,-62.546303
504000,2.810793,-1.185130,8.789114,0.041676,1.429867,-62.973785
508000,2.808398,-1.233014,8.705317,-0.004125,2.010020,-63.523403
512000,2.841918,-1.180341,8.884883,0.377554,2.406966,-63.889816
516000,2.808398,-1.130063,8.851364,0.805035,3.231394,-64.760040
520000,2.949656,-1.110910,8.731653,0.942440,3.246661,-66.134087
524000,3.134010,-1.120486,8.892065,1.995875,3.170325,-67.477600
528000,3.241749,-1.134852,8.925584,2.652363,3.307730,-69.080658
532000,3.201048,-1.194707,8.923190,3.171447,3.078722,-70.912712
536000,3.205836,-1.151611,8.815451,3.598928,2.926050,-72.485237
540000,3.136404,-1.192312,8.808268,3.950073,2.315363,-73.981415
544000,2.851494,-1.256956,8.595184,4.408089,1.552005,-75.431801
548000,2.758120,-1.288081,8.518570,4.484425,0.330631,-76.286758
552000,2.616863,-1.300052,8.456321,4.026409,-0.799140,-76.927986
556000,2.679112,-1.338359,8.398860,3.553127,-2.264789,-77.447067
560000,2.844312,-1.314417,8.418014,3.629463,-2.264789,-77.920349
564000,2.908955,-1.244985,8.362947,3.614195,-2.875476,-78.958519
568000,2.882619,-1.237802,8.453926,3.156180,-4.173186,-79.645538
572000,2.999935,-1.211466,8.485051,2.560760,-4.982347,-81.111191
576000,2.889802,-1.213860,8.585608,1.492058,-5.028148,-81.920349
580000,2.717419,-1.321599,8.473080,0.743966,-4.921278,-82.683708
584000,2.619257,-1.388637,8.422802,0.194348,-4.310591,-82.775314
588000,2.511518,-1.364695,8.523358,-0.569010,-2.814408,-82.790581
592000,2.643199,-1.429338,8.530540,-1.423972,-0.386927,-83.080658
596000,2.568978,-1.455675,8.516175,-2.309469,1.811547,-83.004318
600000,2.832341,-1.429338,8.592790,-3.149163,3.216127,-83.386002
604000,2.825158,-1.431733,8.542512,-3.759850,5.170325,-84.347832
608000,3.062184,-1.393425,8.453926,-5.454507,8.651241,-84.851646
612000,3.028665,-1.441309,8.585608,-6.095729,10.208493,-85.828743
616000,3.155558,-1.491588,8.616732,-5.408706,10.849714,-87.126457
620000,3.339911,-1.419762,8.604761,-5.118629,12.086355,-88.821114
624000,3.337517,-1.563414,8.497022,-4.950690,13.093989,-90.515770
628000,3.241749,-1.544260,8.547300,-4.798018,11.933683,-92.332565
632000,3.208230,-1.620875,8.520964,-4.462141,11.292462,-93.538673
636000,3.162740,-1.673547,8.532935,-4.477407,10.147424,-95.889816
640000,2.932897,-1.716643,8.425196,-4.523210,8.208493,-96.744774
644000,2.657564,-1.771709,8.403648,-4.538477,6.193226,-98.302032
648000,2.501941,-1.821988,8.365341,-4.996491,3.994753,-97.676071
652000,2.348712,-1.896208,8.382100,-5.256034,2.712310,-99.172256
656000,2.240973,-1.951274,8.432379,-5.698782,2.452768,-98.439430
660000,2.097321,-2.109292,8.657434,-5.561378,2.727577,-97.905083
664000,2.090138,-2.142811,8.868123,-4.874354,3.032921,-97.233330
668000,2.068590,-2.116474,8.836999,-4.248401,4.971852,-97.447067
672000,2.284068,-2.161964,8.757990,-3.057560,8.208493,-97.065384
676000,2.092532,-2.087744,8.717288,-3.210232,8.574905,-96.668442
680000,2.133234,-2.068590,8.702923,-3.500308,9.887882,-96.714241
684000,2.109292,-2.126051,8.695741,-3.500308,11.445134,-96.408897
688000,2.209848,-2.161964,8.695741,-3.454507,13.704676,-95.492867
692000,2.059013,-2.164358,8.518570,-3.652980,14.956584,-95.447067
696000,2.051831,-2.173935,8.535329,-3.317102,14.987119,-94.515770
700000,2.195483,-2.152387,8.257602,-3.057560,14.361164,-95.492867
704000,2.248155,-2.202666,8.125920,-2.874354,13.307730,-95.187523
708000,2.166753,-2.207454,8.087613,-3.118629,11.719943,-96.790581
712000,2.197877,-2.319981,8.070854,-3.866720,9.322997,-97.126457
716000,2.188300,-2.262521,8.078036,-4.309469,7.765746,-97.889816
720000,2.343924,-2.274492,8.056489,-4.813286,6.666509,-99.401268
724000,2.430115,-2.281674,8.178593,-5.530843,5.719944,-101.050117
728000,2.537854,-2.319981,8.274361,-6.584278,5.658875,-103.080658
732000,2.626439,-2.372654,8.386889,-7.317102,5.338264,-105.065384
736000,2.561796,-2.454057,8.518570,-7.469774,6.086356,-106.683708
740000,2.430115,-2.525883,8.451532,-7.622446,7.765746,-108.179893
744000,2.267309,-2.535460,8.276755,-8.126263,9.002386,-109.279129
748000,2.202666,-2.636016,8.348581,-8.660614,11.017653,-109.798210
752000,1.987187,-2.719813,8.188169,-9.652981,12.987119,-110.531036
756000,1.819593,-2.741361,8.224083,-10.110995,13.674142,-110.637909
760000,1.742979,-2.734178,8.061277,-10.340003,13.933683,-110.912712
764000,1.795651,-2.695871,8.068460,-10.859087,13.521470,-111.355461
768000,1.795651,-2.683900,8.123527,-10.828553,13.048187,-112.027222
772000,1.836353,-2.621651,8.046912,-11.103362,13.582539,-112.317299
776000,1.807622,-2.592921,8.113950,-12.065194,14.483302,-113.263863
780000,1.891419,-2.590526,8.092402,-12.645347,15.017653,-113.920349
784000,1.843535,-2.566584,8.058883,-12.904889,16.071089,-114.744774
788000,1.833959,-2.616863,8.082825,-13.836186,17.399332,-115.660805
792000,1.529895,-2.631228,7.903260,-14.798018,19.338264,-115.996689
796000,1.417367,-2.652776,7.850587,-15.836186,22.254293,-116.057755
800000,1.374272,-2.576161,7.771579,-17.225498,25.353531,-115.889816
804000,1.541866,-2.624045,7.903260,-17.393438,29.826813,-116.027222
808000,1.731008,-2.674323,8.288726,-16.660612,30.437500,-117.080658
812000,1.738190,-2.679112,8.566454,-16.859087,31.613071,-118.164627
816000,1.458069,-2.722207,8.372523,-16.660612,34.269562,-118.622643
820000,1.247379,-2.789245,8.128315,-17.714048,37.567272,-119.141724
824000,1.211466,-2.861071,8.075643,-18.553743,38.010021,-119.386002
828000,0.979228,-2.985569,8.020576,-18.401072,38.803913,-119.294395
832000,0.802058,-2.995146,7.881712,-17.866720,39.643608,-119.477600
836000,0.782904,-3.007117,8.058883,-18.614811,38.697041,-119.431801
840000,0.627281,-2.980781,8.123527,-18.553743,36.605438,-119.340195
844000,0.409408,-3.055001,8.054094,-18.584276,35.948952,-118.698975
848000,0.323217,-3.119645,7.900866,-17.469774,34.177959,-118.256226
852000,0.308852,-3.191471,7.860164,-17.027025,30.895515,-117.889816
856000,0.316035,-3.208230,7.972692,-16.431606,28.116890,-117.447067
860000,0.320823,-3.169923,8.044518,-16.340002,26.177958,-117.660805
864000,0.507571,-3.191471,8.013393,-15.759851,25.979485,-117.828743
868000,0.533907,-3.210624,7.963115,-15.454507,24.345898,-118.347832
872000,0.572214,-3.174711,8.178593,-15.332370,23.246660,-118.805847
876000,0.751779,-3.196259,8.305486,-16.004124,24.315363,-119.492867
880000,0.787692,-3.258508,8.415619,-16.675880,28.040554,-120.378365
884000,0.565032,-3.294421,8.106767,-16.843819,29.231394,-121.263863
888000,0.332794,-3.337517,7.967903,-18.126263,29.536737,-121.569206
892000,0.124498,-3.387795,7.963115,-18.843819,30.712309,-121.355461
896000,-0.011971,-3.426103,7.900866,-19.790384,32.712311,-120.836380
900000,-0.349553,-3.509900,7.680599,-21.103361,34.208492,-119.782944
904000,-0.454898,-3.593697,7.556100,-22.675880,36.651241,-118.286758
908000,-0.486023,-3.608062,7.481880,-23.958323,38.269562,-117.050117
912000,-0.196325,-3.586514,7.467515,-25.301834,41.002384,-116.607368
916000,0.160412,-3.564966,7.599196,-26.416338,44.300095,-116.729507
920000,0.222661,-3.550601,7.465121,-27.088095,45.887882,-117.630272
924000,0.162806,-3.581726,7.417237,-28.217865,46.239029,-119.141724
928000,0.081403,-3.627216,7.481880,-29.194965,46.345898,-120.271492
932000,-0.179565,-3.749320,7.441179,-29.744583,46.742844,-121.706612
936000,-0.560243,-3.780444,7.400477,-30.431606,46.345898,-122.073021
940000,-0.763750,-3.890578,7.517793,-31.454506,47.552006,-122.073021
944000,-1.398214,-3.902549,7.481880,-31.714046,47.261929,-121.721878
948000,-1.740585,-3.998317,7.594408,-31.561375,45.460400,-120.057755
952000,-1.905785,-3.998317,7.524976,-31.393436,44.132156,-118.378365
956000,-2.102109,-4.053383,7.814674,-31.546108,42.956585,-115.813477
960000,-2.205060,-4.101267,8.070854,-31.011757,43.032921,-113.187523
964000,-2.329558,-4.120421,8.082825,-30.126263,43.567272,-110.439430
968000,-2.154782,-4.086902,8.140285,-29.897255,44.651241,-107.920349
972000,-1.980005,-4.022259,8.133103,-28.767483,44.773376,-106.607368
976000,-1.671153,-4.007894,8.180987,-27.881987,46.361164,-105.645538
980000,-1.283292,-3.952827,8.418014,-26.782751,52.590172,-104.408897
984000,-1.230620,-3.916914,8.377312,-25.820919,53.307728,-105.080658
988000,-1.216254,-3.936068,8.346188,-25.072826,51.078720,-105.615005
992000,-1.489193,-3.974375,8.264784,-24.385803,49.460400,-106.347832
996000,-1.594538,-3.991134,8.248025,-22.462139,47.704678,-106.821114
1000000,-1.821988,-4.077325,8.164227,-20.813284,45.536736,-106.943253
1004000,-1.841141,-3.988740,8.042124,-19.698780,43.872616,-107.202789
1008000,-2.121263,-3.976769,8.066066,-19.057560,41.536736,-107.034851
1012000,-2.382231,-3.871424,8.164227,-18.340002,37.429867,-106.866913
1016000,-2.504335,-3.809175,8.197746,-17.423971,33.842079,-106.118820
1020000,-2.616863,-3.787627,8.149862,-16.492674,31.063456,-104.729507
1024000,-2.645593,-3.718195,8.214506,-15.820920,29.796280,-103.340195
1028000,-2.614468,-3.653552,8.097190,-15.011760,30.941317,-101.767677
1032000,-2.779668,-3.584120,7.987057,-14.736949,31.506203,-99.324928
1036000,-2.827552,-3.560178,7.730877,-14.965957,32.391701,-98.179893
1040000,-2.777274,-3.473987,7.738060,-15.485042,33.582539,-96.042488
1044000,-2.693477,-3.409343,7.776367,-15.668248,35.017654,-94.912712
1048000,-2.794033,-3.373430,7.711724,-16.065193,36.025288,-93.202789
1052000,-2.746149,-3.299210,7.570466,-16.569010,37.521469,-91.156990
1056000,-2.765303,-3.217807,7.541735,-17.103361,38.040554,-90.210426
1060000,-2.750938,-3.138798,7.723695,-17.698780,37.872616,-88.866913
1064000,-2.901772,-3.081338,7.869741,-17.622444,37.735210,-87.813477
1068000,-3.047819,-3.031059,7.955932,-17.042292,35.842079,-86.698975
1072000,-3.119645,-2.968810,7.922413,-16.767483,33.002384,-85.401268
1076000,-3.184288,-3.007117,8.070854,-16.523209,31.277195,-84.408897
1080000,-3.514688,-3.028665,7.960721,-15.988858,29.628340,-82.500504
1084000,-3.696647,-3.040636,8.051701,-15.347636,25.490936,-80.790581
1088000,-3.785233,-3.014300,8.473080,-14.370538,21.109257,-78.744774
1092000,-3.861847,-3.021482,8.757990,-12.996491,18.529104,-76.118820
1096000,-4.015076,-3.040636,8.978256,-10.645347,17.460402,-73.569206
1100000,-4.072537,-2.992752,9.124303,-8.843820,16.162691,-70.989052
1104000,-3.993528,-3.007117,9.193734,-6.996491,16.620707,-67.935616
1108000,-4.027047,-3.076549,9.176975,-5.408706,17.414600,-65.263863
1112000,-3.981557,-3.031059,9.076419,-4.263667,18.315363,-62.683708
1116000,-3.888184,-3.019088,8.947132,-4.324736,18.987120,-59.981419
1120000,-3.955221,-2.896984,8.875306,-4.675881,18.864981,-57.477600
1124000,-3.643975,-2.817975,8.999804,-5.118629,17.811546,-55.187527
1128000,-3.366248,-2.791639,8.997410,-5.805653,18.574905,-53.447067
1132000,-3.165135,-2.652776,9.088389,-6.340003,18.544371,-52.424168
1136000,-3.028665,-2.671929,9.062054,-6.645347,19.124523,-51.599739
1140000,-2.999935,-2.633622,9.136273,-7.149163,18.544371,-51.538670
1144000,-3.083732,-2.604892,9.270349,-6.828553,15.567271,-51.126457
1148000,-3.277662,-2.573767,9.437943,-6.187331,12.864982,-50.424168
1152000,-3.502717,-2.535460,9.583989,-5.714049,10.529103,-48.943249
1156000,-3.641581,-2.506729,9.720459,-4.950690,7.979486,-47.065388
1160000,-3.682282,-2.463634,9.763555,-4.080462,6.284829,-45.599739
1164000,-3.713407,-2.454057,9.763555,-2.538476,3.765745,-43.905083
1168000,-3.711013,-2.461239,9.715671,-1.485041,1.399333,-42.027218
1172000,-3.517082,-2.355895,9.840169,-0.798018,1.918417,-40.011951
1176000,-3.500323,-2.363077,9.720459,-0.523209,2.162692,-38.134090
1180000,-3.409343,-2.372654,9.591172,-0.889621,1.796279,-36.210426
1184000,-3.196259,-2.365471,9.605537,-0.828552,1.261928,-34.790577
1188000,-3.107674,-2.324770,9.825804,-1.027026,2.391699,-33.569202
1192000,-3.110068,-2.363077,9.753978,-0.996492,3.826814,-32.088287
1196000,-3.033453,-2.312799,9.804255,-0.691148,6.147425,-30.653173
1200000,-2.920926,-2.293645,9.780313,-0.141530,9.078722,-29.263861
1204000,-2.846706,-2.310405,9.866506,0.866104,9.689409,-27.844013
1208000,-2.645593,-2.269703,10.086772,2.255417,10.208493,-26.836380
1212000,-2.707842,-2.355895,10.335769,3.843203,11.689409,-25.920349
1216000,-2.695871,-2.420538,10.347740,5.675264,12.697042,-24.760044
1220000,-2.552219,-2.339135,10.587160,7.659997,14.376431,-23.630274
1224000,-2.607286,-2.403779,10.905589,10.270684,16.437500,-22.500502
1228000,-2.674323,-2.401384,10.965444,13.446257,17.826813,-21.385998
1232000,-2.710236,-2.442086,10.891224,16.805035,18.529104,-20.561571
1236000,-2.571373,-2.480393,10.802638,20.011143,19.628340,-19.340197
1240000,-2.561796,-2.394202,10.680533,23.293585,20.574905,-18.546303
1244000,-2.686294,-2.406173,10.299856,26.377556,20.742844,-17.340197
1248000,-2.583344,-2.391808,9.957485,28.774502,18.468035,-16.775311
1252000,-2.506729,-2.408567,9.751583,31.400455,16.132156,-16.393633
1256000,-2.703054,-2.540248,9.320627,33.522591,12.544371,-15.492869
1260000,-2.789245,-2.401384,8.860941,34.789768,8.803913,-14.714244
1264000,-2.736573,-2.365471,8.394072,34.224884,4.406967,-13.492869
1268000,-2.729390,-2.348712,8.195353,33.110378,0.544371,-12.454701
1272000,-2.726996,-2.281674,7.931990,31.339388,-2.463263,-11.172258
1276000,-2.710236,-2.319981,7.678205,29.125647,-5.822041,-9.844014
1280000,-2.736573,-2.188300,7.484274,26.560760,-8.646469,-8.561572
1284000,-2.698265,-2.190695,7.438785,23.400455,-10.432729,-7.248594
1288000,-2.552219,-2.149993,7.144298,19.766867,-8.692270,-5.263861
1292000,-2.358289,-2.042254,6.909666,16.255417,-6.112117,-3.401266
1296000,-2.063802,-1.982399,6.852205,12.270683,-4.554865,-2.225693
1300000,-1.733402,-1.932121,7.003040,8.637096,-2.081583,-1.385999
1304000,-1.651999,-1.968034,7.242460,5.843203,-0.585400,-1.279129
1308000,-1.596933,-1.881842,7.532158,3.797401,-0.157919,-0.851648
1312000,-1.462857,-1.891419,7.829040,2.179081,1.109257,-0.912716
1316000,-1.503559,-1.865083,7.946355,1.247783,1.628341,-0.744777
1320000,-1.549049,-1.920150,8.231265,1.293585,0.498570,-0.760045
1324000,-1.558625,-1.833959,8.315063,1.430989,-0.707537,-0.149358
1328000,-1.604115,-1.893813,8.485051,1.736333,-2.035782,-0.011953
1332000,-1.493982,-1.848324,8.683769,2.270684,-2.646469,0.629268
1336000,-1.460463,-1.821988,8.645462,3.430989,-3.608301,0.629268
1340000,-1.302446,-1.819593,8.729259,4.911905,-3.577766,1.041482
1344000,-1.213860,-1.845930,8.777143,6.347020,-2.799140,1.270490
1348000,-1.144428,-1.884237,8.805874,7.827936,-1.379293,1.652169
1352000,-1.264138,-1.824382,8.827422,8.957706,0.208493,2.232322
1356000,-1.043872,-1.814805,8.911219,9.507325,1.322997,2.568200
1360000,-1.034295,-1.740585,8.829816,10.621829,2.956585,2.995681
1364000,-1.036689,-1.680730,8.757990,11.553126,3.689409,3.255223
1368000,-1.065420,-1.690306,8.437167,12.637096,3.093989,3.468963
1372000,-0.881066,-1.640028,8.346188,13.034042,3.704677,3.652169
1376000,-0.818817,-1.551443,8.334216,12.240149,3.460402,3.835375
1380000,-0.735020,-1.501164,8.410830,11.598928,2.910783,3.545299
1384000,-0.632069,-1.460463,8.169016,10.972974,2.956585,3.255223
1388000,-0.622492,-1.393425,8.018182,9.980608,3.338264,2.736139
1392000,-0.644040,-1.347936,7.917625,9.003509,3.567272,2.507131
1396000,-0.754174,-1.304840,7.714118,7.904272,3.460402,2.705604
1400000,-0.883460,-1.187524,7.556100,6.988241,2.803913,2.751406
1404000,-0.751779,-1.134852,7.503428,6.133279,2.177959,3.087284
1408000,-0.632069,-1.170765,7.563283,5.049310,1.628341,3.056749
1412000,-0.648829,-1.110910,7.450756,4.820302,1.155058,3.102551
1416000,-0.612916,-1.058237,7.345411,4.652363,-0.325858,2.644536
1420000,-0.622492,-1.144428,7.635109,4.698165,-1.562499,2.552932
1424000,-0.572214,-1.089362,7.548918,4.331753,-2.157919,2.644536
1428000,-0.598550,-1.048660,7.460332,3.934806,-3.394560,2.446062
1432000,-0.624887,-1.118092,7.474698,2.774501,-4.402194,2.171253
1436000,-0.591368,-1.132457,7.568071,1.827936,-5.562499,2.278123
1440000,-0.483629,-1.197101,7.541735,0.743966,-6.539598,2.201787
1444000,-0.325611,-1.211466,7.654263,-0.798018,-6.432728,1.804841
1448000,-0.150835,-1.228225,7.850587,-1.836186,-5.333491,1.621635
1452000,-0.117316,-1.240196,7.943961,-2.370538,-3.944179,1.041482
1456000,-0.119710,-1.304840,8.070854,-2.309469,-1.989980,0.766673
1460000,-0.062249,-1.367089,8.264784,-2.126262,-0.707537,0.461329
1464000,-0.050278,-1.496376,8.233660,-1.301835,0.376432,0.079650
1468000,-0.155623,-1.513135,8.092402,-0.645346,-0.280056,-0.668442
1472000,-0.134075,-1.699883,8.099585,-0.569010,-1.516698,-1.126457
1476000,-0.143652,-1.726219,8.135497,-0.950690,-2.997614,-1.721877
1480000,-0.131681,-1.747767,8.248025,-1.546110,-4.554865,-2.088289
1484000,-0.117316,-1.872266,8.408437,-1.805652,-5.241889,-2.454701
1488000,-0.165200,-1.884237,8.437167,-2.187331,-6.814407,-2.454701
1492000,-0.225055,-1.924938,8.473080,-2.385804,-8.173186,-2.576838
1496000,-0.380678,-1.980005,8.458714,-2.996492,-7.944179,-2.500503
1500000,-0.397437,-1.915361,8.497022,-3.836186,-7.440361,-1.996686
1504000,-0.397437,-1.958457,8.532935,-4.752217,-5.684637,-1.462335
1508000,-0.351948,-1.879448,8.518570,-4.599545,-3.516698,-0.729510
1512000,-0.380678,-1.757344,8.549694,-4.813286,-2.280056,-0.286762
1516000,-0.390255,-1.750161,8.511387,-4.965958,-0.249522,-0.011953
1520000,-0.304064,-1.752556,8.590396,-4.904889,1.903150,0.919345
1524000,-0.392649,-1.673547,8.501810,-4.340003,3.826814,1.056749
1528000,-0.277727,-1.618480,8.559271,-4.095729,5.552005,1.285757
1532000,-0.328006,-1.582567,8.475474,-3.897255,6.361165,1.285757
1536000,-0.294487,-1.587356,8.406042,-3.362904,5.735211,1.209421
1540000,-0.275333,-1.515530,8.458714,-3.271301,3.979486,0.629268
1544000,-0.459687,-1.539472,8.355764,-2.004125,1.857348,0.339192
1548000,-0.433351,-1.458069,8.116343,-1.591912,-0.386927,0.323925
1552000,-0.402226,-1.462857,8.027759,-1.652980,-2.218988,0.018581
1556000,-0.342371,-1.422156,7.915231,-1.759850,-3.440362,0.155986
1560000,-0.136469,-1.450886,7.912837,-2.248400,-4.280056,-0.195159
1564000,-0.126893,-1.395820,7.922413,-3.332370,-4.814407,-0.805846
1568000,-0.112527,-1.395820,7.958326,-4.477407,-4.692270,-1.080655
1572000,-0.179565,-1.383849,8.015787,-5.943057,-5.089217,-1.523403
1576000,-0.280122,-1.395820,8.169016,-6.904889,-5.501431,-1.508136
1580000,-0.363919,-1.491588,8.231265,-7.332370,-5.287690,-1.156991
1584000,-0.411803,-1.496376,8.374918,-7.973591,-4.860209,-0.500503
1588000,-0.330400,-1.577779,8.439561,-8.416339,-3.577766,-0.164625
1592000,-0.320823,-1.541866,8.564059,-8.721683,-2.799140,0.201787
1596000,-0.268151,-1.673547,8.769960,-8.492675,-2.844942,0.217055
1600000,-0.383072,-1.690306,8.851364,-8.401072,-2.951812,0.476597
1604000,-0.318429,-1.644817,8.822633,-8.278934,-2.967079,0.629268
1608000,-0.457293,-1.711854,8.949526,-7.698782,-2.661736,0.873543
1612000,-0.272939,-1.750161,9.119514,-7.103362,-1.913644,0.827742
1616000,-0.323217,-1.833959,9.184157,-6.065194,-1.547232,0.629268
1620000,-0.344765,-1.836353,9.097966,-4.752217,-1.654102,0.568200
1624000,-0.462081,-1.877054,9.126697,-3.546110,-2.341125,0.583467
1628000,-0.452504,-1.845930,9.069236,-2.859087,-2.722805,0.568200
1632000,-0.414197,-1.771709,9.097966,-2.675881,-1.531965,0.888810
1636000,-0.462081,-1.812411,9.006987,-2.217866,-0.921278,0.629268
1640000,-0.373495,-1.802834,8.930372,-1.897255,-0.325858,1.041482
1644000,-0.325611,-1.814805,9.035717,-1.042293,0.956585,0.980413
1648000,-0.287304,-1.675941,8.841787,-0.599545,2.681776,1.285757
1652000,-0.251391,-1.738190,8.724471,-0.340003,3.490936,1.194154
1656000,-0.184354,-1.702277,8.552089,-0.614812,4.071089,0.751406
1660000,-0.265756,-1.628057,8.520964,-0.859087,3.781013,0.171253
1664000,-0.344765,-1.690306,8.537724,-0.981224,2.834447,-0.210426
1668000,-0.426168,-1.625663,8.336611,-1.011759,1.781012,-0.561571
1672000,-0.488417,-1.604115,8.257602,-1.088094,0.498570,-0.332564
1676000,-0.383072,-1.589750,8.104373,-1.744583,-0.051049,-0.424167
1680000,-0.268151,-1.527501,8.090008,-1.973591,-0.005247,-0.729510
1684000,-0.337582,-1.640028,8.236053,-2.920156,-1.302957,-1.080655
1688000,-0.392649,-1.661576,8.180987,-3.698782,-2.249522,-1.401266
1692000,-0.447716,-1.666364,8.226477,-4.370538,-2.997614,-1.676075
1696000,-0.608127,-1.719037,8.228871,-4.675881,-3.928911,-1.569205
1700000,-0.818817,-1.719037,8.255207,-5.423973,-3.959446,-1.324930
1704000,-0.684742,-1.740585,8.271967,-5.820919,-3.959446,-0.653174
1708000,-0.526724,-1.754950,8.315063,-6.370538,-3.394560,-0.378365
1712000,-0.426168,-1.833959,8.360553,-6.248401,-2.783873,0.110184
1716000,-0.371101,-1.879448,8.192958,-6.095729,-2.829675,0.217055
1720000,-0.165200,-1.948880,8.178593,-7.240767,-3.150285,-0.256228
1724000,-0.023942,-1.980005,8.391677,-8.004126,-3.180820,-1.050121
1728000,-0.148441,-2.078167,8.626308,-8.202599,-3.715171,-1.645541
1732000,-0.404620,-2.097321,8.834604,-8.263667,-5.073949,-2.088289
1736000,-0.565032,-2.190695,9.088389,-7.469774,-5.806774,-1.874548
1740000,-0.694318,-2.171541,9.217676,-7.011759,-6.157919,-1.218060
1744000,-0.696713,-2.200271,9.157822,-6.401072,-5.302957,-0.424167
1748000,-0.761356,-2.183512,9.311050,-5.683515,-4.646469,0.293391
1752000,-0.624887,-2.233790,9.253590,-4.523210,-3.959446,1.010948
1756000,-0.481235,-2.133234,9.174581,-3.866720,-2.768606,1.835375
1760000,-0.186748,-2.106898,9.196129,-3.698782,-1.684637,1.514765
1764000,0.076614,-2.082955,9.282320,-2.141530,0.712310,0.965146
1768000,0.064643,-2.013524,9.296685,-0.462140,2.177959,0.323925
1772000,0.021548,-1.924938,9.220071,0.805035,2.758112,-0.546304
1776000,-0.141258,-1.934515,9.169792,1.812669,3.368799,-1.218060
1780000,-0.258574,-1.934515,9.191340,2.041676,3.185592,-1.324930
1784000,-0.459687,-1.989582,9.014170,2.331753,2.300096,-1.431800
1788000,-0.579397,-1.944092,9.033323,2.224883,0.895516,-1.111190
1792000,-0.691924,-1.999158,8.784326,2.255417,0.345898,-0.760045
1796000,-0.763750,-1.972822,8.609550,1.644730,0.055821,-0.118823
1800000,-0.888249,-1.963245,8.635885,1.278317,0.605440,0.568200
1804000,-0.878672,-1.929727,8.432379,0.606562,1.368798,1.316291
1808000,-0.811634,-1.824382,8.324639,-0.141530,2.910783,1.759039
1812000,-0.696713,-1.900996,8.228871,-0.950690,4.437501,2.354459
1816000,-0.651223,-1.867477,8.178593,-1.469774,6.147425,2.568200
1820000,-0.598550,-1.819593,8.075643,-1.973591,6.483303,2.522398
1824000,-0.567426,-1.900996,7.960721,-1.943056,6.315363,2.598734
1828000,-0.656011,-1.800440,7.852982,-2.660614,6.010020,2.476597
1832000,-0.732626,-1.848324,7.893683,-3.149163,3.964219,2.064383
1836000,-0.885855,-1.759738,8.118738,-2.965957,1.628341,2.186520
1840000,-0.960075,-1.790863,8.212111,-3.072828,-0.157919,2.369726
1844000,-1.027112,-1.869871,8.209718,-3.286568,-1.837308,2.614001
1848000,-1.070208,-1.980005,8.123527,-2.889621,-2.264789,3.438429
1852000,-1.146823,-1.944092,7.908048,-3.256034,-2.860209,4.155986
1856000,-0.792481,-1.994370,8.003817,-3.851454,-3.745705,4.507131
1860000,-0.390255,-1.999158,8.202535,-4.401072,-3.730438,4.461329
1864000,-0.253785,-2.090138,8.271967,-4.217866,-3.745705,3.835375
1868000,-0.222661,-2.073379,8.401254,-3.576644,-4.341125,3.362093
1872000,-0.198719,-2.130840,8.446744,-2.736950,-4.310591,2.629268
1876000,-0.203507,-2.054225,8.513782,-2.645346,-3.776240,2.614001
1880000,-0.368707,-2.157176,8.899248,-2.935423,-3.852576,2.217055
1884000,-0.457293,-2.188300,8.983045,-2.736950,-4.020514,2.415528
1888000,-0.620098,-2.197877,8.923190,-2.721682,-5.135018,2.720871
1892000,-0.689530,-2.152387,8.918402,-2.477408,-6.218987,3.438429
1896000,-0.725443,-2.130840,8.769960,-2.324736,-6.570133,4.201787
1900000,-0.730232,-2.121263,8.875306,-2.217866,-6.066316,4.781940
1904000,-0.735020,-2.068590,8.738836,-1.958324,-5.959445,5.392627
1908000,-0.723049,-2.018312,8.595184,-2.034660,-5.531965,6.262856
1912000,-0.677559,-1.982399,8.535329,-2.675881,-4.341125,6.720871
1916000,-0.509965,-1.798046,8.520964,-3.851454,-2.524331,6.949879
1920000,-0.347159,-1.800440,8.552089,-4.187331,-0.875476,7.163620
1924000,-0.337582,-1.699883,8.599973,-4.431606,0.300096,6.797207
1928000,-0.275333,-1.680730,8.813056,-4.416339,0.895516,6.476597
1932000,-0.490811,-1.807622,8.796297,-4.141530,0.758111,6.400261
1936000,-0.648829,-1.735796,8.662222,-3.607178,0.391699,6.659803
1940000,-0.560243,-1.821988,8.662222,-3.301835,-0.173186,6.537665
1944000,-0.328006,-1.814805,8.655039,-2.965957,-0.539598,6.140719
1948000,-0.306458,-1.903390,8.748413,-2.920156,-0.600667,5.713238
1952000,-0.237026,-1.881842,8.825027,-2.248400,-0.860209,5.178887
1956000,-0.191536,-1.991976,8.832211,-1.866720,-1.272423,4.461329
1960000,-0.320823,-1.965640,8.856153,-1.332370,-2.035782,3.667437
1964000,-0.500388,-2.051831,8.863335,-0.523209,-1.898377,3.270490
1968000,-0.687136,-2.202666,8.923190,0.576027,-2.722805,3.530032
1972000,-0.811634,-2.173935,9.083601,1.522592,-2.844942,4.033849
1976000,-0.900220,-2.267309,8.836999,2.652363,-2.157919,4.507131
1980000,-0.962469,-2.240973,8.705317,3.263050,-2.463263,5.041482
1984000,-0.933739,-2.126051,8.645462,3.629463,-2.753339,6.049116
1988000,-0.948104,-2.190695,8.599973,3.079844,-2.447995,6.491864
1992000,-0.933739,-2.080561,8.544906,2.606562,-1.822041,7.239955
1996000,-0.715866,-2.020706,8.444349,2.026409,-1.791507,7.789574
