time_us,ax,ay,az,gx,gy,gz
0,1.173159,-0.667982,8.676587,-2.630080,-1.745705,1.072016
4000,1.211466,-0.703895,8.686164,-2.599545,-2.875476,0.507131
8000,1.292869,-0.658405,8.599973,-2.859087,-3.455629,0.507131
12000,1.335965,-0.663194,8.755595,-2.660614,-3.562499,0.278123
16000,1.340753,-0.711078,8.853758,-2.263667,-3.684637,-0.149358
20000,1.244985,-0.679953,8.889671,-1.943056,-3.806774,-0.042487
24000,1.206678,-0.737414,8.930372,-1.698782,-3.867843,-0.164625
28000,1.304840,-0.711078,9.028535,-1.790385,-2.967079,-0.256228
32000,1.319205,-0.735020,8.889671,-1.408705,-2.188453,-0.393632
36000,1.314417,-0.749385,8.841787,-0.828552,-1.455629,-0.500503
40000,1.290475,-0.739808,8.762778,-0.813286,-1.699904,-0.531037
44000,1.230620,-0.737414,8.722076,-0.798018,-1.944179,-0.698976
48000,1.146823,-0.670376,8.607155,-1.179698,-2.417461,-0.683709
52000,1.180341,-0.732626,8.537724,-1.500308,-2.646469,-0.485235
56000,1.225831,-0.723049,8.611943,-2.034660,-2.967079,-0.775312
60000,1.304840,-0.708684,8.635885,-2.019392,-3.272423,-0.683709
64000,1.338359,-0.773327,8.693346,-1.668247,-3.516698,-1.004319
68000,1.376666,-0.660800,8.710106,-1.912522,-3.867843,-1.416533
72000,1.410185,-0.711078,8.722076,-1.820919,-4.463263,-1.691342
76000,1.338359,-0.732626,8.724471,-1.988858,-4.844942,-2.088289
80000,1.276109,-0.821211,8.626308,-1.714049,-5.470896,-2.408900
84000,1.266533,-0.763750,8.734048,-1.927789,-5.745705,-2.195159
88000,1.314417,-0.794875,8.724471,-1.973591,-5.867843,-2.103556
92000,1.343147,-0.785298,8.777143,-1.393438,-5.699903,-2.149358
96000,1.527501,-0.766145,8.832211,-1.057560,-5.593033,-1.981419
100000,1.496376,-0.742203,8.932767,-0.431606,-5.302957,-2.576838
104000,1.534683,-0.770933,8.935161,-0.553744,-4.493797,-2.378365
108000,1.484405,-0.701501,8.781932,-0.416339,-3.638835,-2.393632
112000,1.489193,-0.751779,8.707711,-0.523209,-3.119751,-2.256228
116000,1.434127,-0.790087,8.762778,-0.660614,-2.860209,-2.271495
120000,1.405396,-0.766145,8.815451,-0.828552,-2.692270,-1.935617
124000,1.338359,-0.758962,8.678981,-0.706415,-2.447995,-1.462335
128000,1.513135,-0.799663,8.834604,-0.523209,-1.760972,-1.523403
132000,1.630451,-0.797269,8.832211,-0.446873,-0.478530,-1.492869
136000,1.764527,-0.754174,8.762778,-0.355270,0.742844,-1.416533
140000,1.850718,-0.766145,8.734048,-0.263667,1.521470,-2.011953
144000,1.843535,-0.746991,8.647857,0.056943,1.704676,-2.225693
148000,1.874660,-0.744597,8.647857,0.011142,1.719944,-2.576838
152000,1.812411,-0.758962,8.583213,-0.156797,1.124524,-2.912716
156000,1.848324,-0.682347,8.542512,-0.599545,0.498570,-2.958518
160000,1.865083,-0.778116,8.468291,-0.752217,0.147424,-3.492869
164000,1.953669,-0.684742,8.355764,-1.072828,-0.829675,-3.553938
168000,1.912967,-0.682347,8.350976,-1.393438,-1.776240,-4.027220
172000,2.068590,-0.667982,8.360553,-1.775118,-2.280056,-4.515770
176000,2.128445,-0.660800,8.334216,-1.973591,-3.089217,-5.156991
180000,2.171541,-0.569820,8.415619,-2.462140,-4.753339,-5.630273
184000,2.188300,-0.603339,8.485051,-2.172064,-5.058682,-5.996686
188000,2.310405,-0.641646,8.549694,-1.897255,-5.913644,-6.149357
192000,2.370260,-0.648829,8.497022,-1.347636,-7.287690,-6.653174
196000,2.389413,-0.581791,8.425196,-1.133896,-8.509065,-7.309663
200000,2.571373,-0.581791,8.501810,-0.828552,-9.638836,-8.164625
204000,2.683900,-0.562637,8.556877,-0.675881,-10.173186,-8.729510
208000,2.712631,-0.533907,8.590396,-0.370538,-11.165553,-9.584473
212000,2.695871,-0.521936,8.657434,-0.401072,-11.791507,-10.378366
216000,2.645593,-0.497994,8.676587,-0.675881,-12.585401,-10.821114
220000,2.717419,-0.545878,8.755595,-1.011759,-12.325858,-11.279129
224000,2.621651,-0.639252,8.810662,-1.561377,-11.486164,-11.431801
228000,2.597709,-0.656011,8.858546,-1.668247,-10.722805,-11.401266
232000,2.640805,-0.706290,8.987833,-1.698782,-9.318225,-11.324930
236000,2.762909,-0.584185,8.863335,-1.607178,-7.455629,-11.050121
240000,2.887407,-0.706290,8.939949,-1.683514,-5.272423,-11.202793
244000,3.059790,-0.624887,8.966286,-1.591912,-2.921278,-11.844014
248000,3.246537,-0.598550,9.090784,-1.133896,-0.768606,-12.134090
252000,3.423708,-0.629675,9.165004,-0.141530,1.307730,-13.523404
256000,3.545813,-0.665588,9.263166,0.835569,3.216127,-14.882182
260000,3.466804,-0.543484,9.071630,2.026409,4.651241,-16.011953
264000,3.385401,-0.641646,8.999804,3.003508,4.452768,-17.095922
268000,3.208230,-0.653617,8.959103,3.705798,3.124524,-18.134090
272000,3.277662,-0.703895,8.961497,3.873737,2.177959,-18.866915
276000,3.284845,-0.720655,8.757990,4.056943,0.727577,-19.889814
280000,3.260903,-0.689530,8.681376,4.270684,-0.936545,-20.744778
284000,3.311181,-0.670376,8.619126,3.827936,-2.585400,-21.721876
288000,3.423708,-0.670376,8.700529,3.598928,-4.157919,-22.790579
292000,3.428497,-0.663194,8.784326,3.736333,-4.692270,-23.660807
296000,3.320758,-0.723049,8.621520,3.950073,-5.012881,-24.805845
300000,3.287239,-0.689530,8.295909,3.827936,-6.203721,-25.065388
304000,3.359065,-0.663194,8.429984,3.201982,-7.394560,-25.889814
308000,3.390190,-0.656011,8.499416,2.911905,-7.806774,-26.469967
312000,3.418920,-0.593762,8.365341,2.805035,-9.654102,-27.309662
316000,3.603274,-0.529119,8.626308,2.545493,-11.028149,-28.179892
320000,3.679888,-0.605733,8.803479,2.698165,-10.783874,-29.492868
324000,3.713407,-0.598550,8.674192,2.805035,-11.501431,-30.592106
328000,3.663129,-0.644040,8.609550,2.866104,-12.234255,-31.706610
332000,3.612850,-0.684742,8.760384,2.637096,-12.371660,-32.363098
336000,3.622427,-0.711078,8.609550,2.301218,-12.753339,-33.279129
340000,3.663129,-0.785298,8.676587,1.858470,-12.967080,-34.103554
344000,3.715801,-0.742203,8.662222,1.263050,-12.509065,-34.821114
348000,3.936068,-0.768539,8.743625,1.003508,-11.547233,-35.676075
352000,3.904943,-0.794875,8.664616,0.957707,-10.280057,-36.546303
356000,3.952827,-0.816423,8.712500,0.835569,-8.890744,-37.706608
360000,4.024653,-0.864307,8.724471,1.186714,-7.302957,-38.531036
364000,4.007894,-0.857124,8.820239,1.476791,-6.295323,-39.492870
368000,4.017470,-0.928950,8.813056,1.873737,-5.409827,-40.576839
372000,4.180276,-0.900220,8.784326,2.713432,-4.768606,-41.935616
376000,4.213795,-0.933739,8.717288,3.003508,-4.493797,-43.447067
380000,4.125209,-0.998382,8.796297,3.446256,-5.272423,-44.958519
384000,4.237737,-0.948104,8.755595,3.858470,-5.684637,-46.179890
388000,4.295198,-1.110910,8.669404,4.682898,-5.638835,-47.874546
392000,4.034230,-1.151611,8.425196,5.018775,-6.310591,-48.775311
396000,3.857059,-1.182736,8.269572,4.835569,-7.257155,-49.676075
400000,3.952827,-1.185130,8.243237,4.408089,-8.371659,-50.271496
404000,3.983952,-1.300052,8.250419,4.118012,-9.226622,-50.714241
408000,3.869030,-1.297657,8.271967,4.102745,-9.974713,-51.370731
412000,4.055778,-1.328782,8.312668,4.194348,-10.020514,-52.057755
416000,4.218584,-1.400608,8.125920,3.873737,-8.692270,-52.912716
420000,4.223372,-1.441309,8.159439,3.430989,-7.089217,-53.798210
424000,4.192247,-1.434127,8.046912,2.713432,-6.005247,-54.943249
428000,4.189853,-1.482011,8.169016,2.408089,-5.623568,-56.027218
432000,4.386178,-1.458069,8.101978,1.675264,-5.455629,-57.492870
436000,4.276044,-1.489193,8.154651,0.881371,-5.974713,-58.958519
440000,4.199430,-1.491588,8.370130,0.911905,-5.989980,-60.195160
444000,3.962404,-1.644817,8.240842,0.988241,-5.852575,-60.775311
448000,3.799598,-1.697489,8.372523,1.293585,-6.631201,-61.385998
452000,3.797204,-1.745373,8.667010,1.766867,-6.447995,-61.996685
456000,3.670311,-1.757344,8.702923,2.362287,-6.218987,-62.088287
460000,3.620033,-1.692701,8.657434,3.446256,-6.356392,-62.271496
464000,3.574543,-1.620875,8.748413,4.133279,-6.051049,-62.515770
468000,3.488352,-1.699883,8.626308,4.957707,-5.608301,-62.821114
472000,3.416526,-1.616086,8.542512,5.889005,-4.844942,-62.515770
476000,3.440468,-1.570596,8.544906,6.408089,-4.264789,-62.500504
480000,3.512294,-1.484405,8.418014,6.652363,-2.570133,-62.607372
484000,3.679888,-1.479617,8.202535,6.667630,0.208493,-62.927982
488000,3.608062,-1.307234,8.039729,6.484425,1.781012,-63.218060
492000,3.550601,-1.194707,7.814674,5.659997,2.345898,-63.889816
496000,3.600879,-1.177947,7.663840,4.469157,2.193226,-64.286766
500000,3.459621,-1.074997,7.517793,3.644730,2.437501,-64.653175
504000,3.593697,-1.017536,7.232883,2.453890,1.536737,-65.431801
508000,3.828329,-0.948104,7.333440,0.362287,0.010020,-66.576836
512000,4.113238,-0.972046,7.580042,-1.576644,0.101623,-68.424164
516000,4.137180,-1.036689,7.941567,-2.202598,-0.081583,-70.271492
520000,4.003105,-1.074997,8.027759,-2.095728,-1.257156,-72.271492
524000,4.091691,-1.151611,8.032547,-2.370538,-2.051049,-74.210426
528000,3.995923,-1.199495,8.070854,-2.767484,-1.379293,-75.386002
532000,3.883395,-1.331176,8.113950,-4.172065,-2.096850,-77.004318
536000,3.792415,-1.455675,8.331821,-4.904889,-3.379293,-78.134087
540000,3.639187,-1.582567,8.473080,-5.240767,-4.020514,-78.744774
544000,3.617639,-1.702277,8.578424,-5.286569,-4.325858,-79.737144
548000,3.572149,-1.699883,8.664616,-5.454507,-4.799140,-80.240959
552000,3.526659,-1.862689,8.827422,-5.698782,-4.951812,-80.622643
556000,3.524265,-1.975216,8.899248,-5.866721,-5.654102,-81.340195
560000,3.581726,-2.087744,9.318233,-5.485042,-5.211354,-82.210426
564000,3.672705,-2.118869,9.294291,-5.256034,-3.379293,-83.416534
568000,3.514688,-2.157176,9.349358,-5.011759,-1.470896,-84.225693
572000,3.335123,-2.205060,9.277532,-4.065194,-0.799140,-84.637909
576000,3.236961,-2.140416,9.370906,-3.561377,-0.325858,-85.355461
580000,3.040636,-2.257732,9.423578,-2.507942,1.246661,-85.523399
584000,2.896984,-2.248155,9.528923,-1.469774,3.093989,-85.095924
588000,2.786851,-2.212242,9.634268,0.499691,5.032921,-85.279129
592000,2.782062,-2.094927,9.236830,2.377554,6.742845,-84.622643
596000,2.621651,-2.037466,8.865729,3.430989,7.124524,-84.576836
600000,2.676718,-1.972822,8.810662,4.347020,6.773379,-84.515770
604000,2.638410,-1.922544,8.674192,4.881371,6.055821,-84.805847
608000,2.731784,-1.898602,8.485051,5.400455,4.513837,-84.927986
612000,2.844312,-1.833959,8.248025,4.789768,2.834447,-85.737144
616000,2.956839,-1.829170,8.283937,4.026409,1.582539,-86.851646
620000,3.014300,-1.786075,8.192958,3.797401,0.742844,-87.859283
624000,2.918532,-1.824382,8.008605,2.957707,-0.371659,-88.836380
628000,2.798822,-1.841141,8.046912,2.087478,-1.837308,-89.615005
632000,2.758120,-1.862689,8.109161,0.667630,-2.906011,-90.363098
636000,2.758120,-1.889025,8.111555,-0.340003,-3.867843,-91.004318
640000,2.901772,-2.070984,8.236053,-1.301835,-4.127385,-91.691345
644000,2.846706,-2.114080,8.219295,-2.706415,-3.455629,-92.546303
648000,2.798822,-2.190695,8.406042,-3.332370,-2.020514,-92.927986
652000,2.758120,-2.202666,8.463503,-4.065194,-0.005247,-93.340195
656000,2.640805,-2.185906,8.382100,-4.996491,1.414600,-93.309662
660000,2.609680,-2.200271,8.611943,-5.515575,2.773379,-93.584473
664000,2.554613,-2.272097,8.475474,-6.355270,3.735211,-93.981415
668000,2.466028,-2.281674,8.492233,-7.500309,4.574905,-94.973785
672000,2.410961,-2.329558,8.609550,-8.431606,6.468035,-95.019585
676000,2.403779,-2.252944,8.580819,-9.439240,7.261929,-94.821114
680000,2.446874,-2.300828,8.540117,-10.706415,7.460402,-96.393631
684000,2.458845,-2.188300,8.762778,-12.080461,7.704676,-97.065384
688000,2.308010,-2.190695,8.987833,-11.973591,7.887883,-97.386002
692000,2.272097,-2.104503,9.057265,-11.210233,7.399333,-97.172256
696000,2.324770,-1.984793,9.078813,-10.324736,5.521471,-98.363098
700000,2.530671,-1.908179,9.263166,-9.652981,4.697043,-99.218056
704000,2.722207,-1.841141,9.473856,-9.347637,5.674142,-101.462334
708000,2.719813,-1.838747,9.545682,-9.362904,6.635974,-103.095924
712000,2.540248,-1.860295,9.591172,-9.057561,8.864982,-104.332565
716000,2.358289,-1.836353,9.418790,-9.607179,12.071088,-104.851646
720000,2.188300,-1.917756,9.466674,-10.126263,16.422234,-105.202789
724000,1.982399,-2.063802,9.277532,-9.744583,20.345898,-104.698975
728000,1.709460,-2.051831,9.397242,-10.523210,22.345898,-104.302032
732000,1.606509,-2.250550,9.524135,-9.179698,23.017653,-103.340195
736000,1.539472,-2.322376,9.387665,-7.271301,23.613073,-101.981415
740000,1.496376,-2.238579,9.375694,-6.370538,22.712309,-101.828743
744000,1.570596,-2.355895,9.299079,-5.897255,23.536737,-100.851646
748000,1.783680,-2.298434,9.265560,-4.523210,23.200859,-100.989052
752000,2.102109,-2.217031,9.701305,-3.469774,20.315363,-102.073021
756000,2.406173,-2.140416,9.749189,-2.584278,16.162691,-103.538673
760000,2.420538,-2.195483,9.662998,-2.584278,15.658875,-105.569206
764000,2.456451,-2.260126,9.493010,-3.179698,15.521470,-107.065384
768000,2.494758,-2.219425,9.275137,-2.920156,14.116890,-108.866913
772000,2.248155,-2.240973,9.370906,-3.133896,14.727577,-110.118820
776000,2.126051,-2.221819,9.205706,-3.912522,15.460402,-111.218056
780000,1.989582,-2.205060,9.258378,-4.859087,16.987120,-111.889816
784000,1.754950,-2.085350,9.143456,-5.790385,18.406965,-112.210426
788000,1.690306,-2.061408,8.942344,-6.462141,20.376432,-112.057755
792000,1.553837,-2.011129,8.937555,-7.439240,22.330629,-111.996689
796000,1.640028,-1.951274,9.088389,-8.049927,25.368797,-111.905083
800000,1.843535,-1.910573,9.272743,-8.645347,28.956585,-112.393631
804000,2.097321,-1.833959,9.330204,-9.240767,32.651241,-113.309662
808000,2.480393,-1.695095,9.421184,-9.561378,35.842079,-115.492867
812000,2.511518,-1.750161,9.504981,-9.347637,38.803913,-117.737144
816000,2.480393,-1.867477,9.473856,-9.256034,41.597805,-120.454704
820000,2.382231,-1.790863,9.402030,-9.149163,43.811546,-122.531036
824000,2.219425,-1.912967,9.349358,-8.736950,44.376431,-124.744774
828000,2.183512,-2.073379,9.500193,-7.515575,44.956585,-126.408897
832000,1.991976,-2.169147,9.639056,-6.599545,45.002384,-128.271500
836000,1.872266,-2.276886,9.512163,-4.813286,46.254295,-129.401260
840000,1.525106,-2.434903,9.234436,-3.805652,46.300095,-130.439438
844000,1.278504,-2.492364,9.289502,-3.469774,45.414600,-130.714249
848000,1.221043,-2.619257,9.095572,-3.164430,46.590172,-131.141724
852000,1.316811,-2.717419,9.241618,-3.133896,47.384064,-131.401260
856000,1.355118,-2.738967,9.217676,-2.904888,47.735210,-132.271500
860000,1.577779,-2.777274,9.229648,-1.988858,50.941319,-133.416534
864000,1.525106,-2.786851,9.246407,-2.691148,52.483303,-134.790573
868000,1.328782,-2.817975,9.042900,-2.355270,55.735210,-136.195160
872000,1.070208,-2.873042,8.911219,-2.996492,58.849712,-136.912720
876000,1.041478,-3.102885,8.702923,-2.172064,64.269562,-137.477600
880000,0.758962,-3.145981,8.578424,-3.164430,65.216133,-137.828751
884000,0.646434,-3.256114,8.676587,-2.416339,66.742851,-138.317291
888000,0.459687,-3.184288,8.544906,-3.271301,68.941322,-138.363098
892000,0.208296,-3.236961,8.137892,-2.721682,67.765747,-138.775314
896000,0.280122,-3.337517,7.946355,-2.462140,71.048195,-138.286758
900000,-0.205901,-3.270479,7.855376,-3.286568,74.635979,-137.187531
904000,-0.356736,-3.315969,7.465121,-3.759850,73.200867,-136.454697
908000,-0.397437,-3.292027,7.082048,-5.714049,70.483307,-136.210419
912000,-0.464475,-3.263297,7.038953,-6.767485,67.399338,-135.569199
916000,-0.450110,-3.181894,7.065289,-7.958323,62.926048,-135.477600
920000,-0.162806,-3.213019,7.125144,-9.027026,61.216125,-135.721878
924000,-0.129287,-3.224990,7.237672,-9.622446,62.544373,-135.767685
928000,-0.124498,-3.289633,7.230489,-10.126263,64.483307,-136.378372
932000,-0.074220,-3.239355,7.184999,-10.752217,65.078728,-137.172256
936000,-0.234632,-3.313575,7.560889,-11.210233,64.132164,-138.332565
940000,0.081403,-3.284845,7.836222,-10.202599,64.452774,-140.149353
944000,0.361524,-3.383007,7.841011,-9.881988,68.040558,-142.286758
948000,-0.033519,-3.596091,7.570466,-9.454507,71.002388,-145.004318
952000,-0.502782,-3.854665,7.529764,-7.897255,73.002388,-146.454697
956000,-0.871489,-3.928885,7.575254,-7.790385,74.223763,-147.676071
960000,-1.283292,-4.012682,7.589619,-8.126263,74.345901,-148.500504
964000,-2.049437,-4.165911,7.369353,-7.210233,74.406967,-147.844009
968000,-2.583344,-4.120421,7.139510,-8.706415,70.300102,-147.676071
972000,-2.870648,-3.995923,7.129933,-10.217866,68.849716,-145.935623
976000,-3.473987,-4.058172,7.031770,-10.187331,66.544373,-143.034851
980000,-3.792415,-3.948039,7.038953,-10.172065,60.819180,-141.202789
984000,-3.782839,-3.900155,7.213730,-10.141530,58.956585,-139.309662
988000,-4.402937,-3.687071,7.362170,-9.943057,56.849712,-136.729507
992000,-4.611232,-3.445256,7.304709,-9.332370,53.948952,-134.195160
996000,-4.639963,-3.248932,7.366959,-8.278934,52.498569,-131.523407
1000000,-4.721366,-3.318364,7.565677,-6.920156,53.384064,-128.729507
1004000,-4.891354,-3.308787,7.467515,-4.798018,54.040554,-126.103554
1008000,-5.109226,-3.186682,7.359776,-2.752217,53.353531,-123.660805
1012000,-5.204995,-3.093309,7.268796,-1.164430,52.437500,-121.050117
1016000,-5.568913,-2.949656,7.304709,0.392821,50.574905,-118.393631
1020000,-5.937620,-2.813187,7.343017,2.713432,46.651241,-115.798210
1024000,-6.248867,-2.633622,7.343017,4.957707,41.994751,-112.912712
1028000,-6.550536,-2.449268,7.134721,7.430989,36.345898,-109.782944
1032000,-7.019799,-2.355895,7.074866,9.812669,29.933683,-106.317299
1036000,-7.493851,-2.133234,6.780379,12.438622,22.910784,-101.294395
1040000,-7.611167,-1.932121,6.598420,13.919538,16.498569,-96.363098
1044000,-7.635109,-1.680730,6.442797,13.583661,9.979486,-92.225693
1048000,-7.455544,-1.450886,6.373365,12.774501,4.437501,-87.294395
1052000,-7.381324,-1.271321,6.464345,11.079844,0.132157,-83.126457
1056000,-7.422025,-1.065420,6.382942,9.247784,-3.364026,-78.592102
1060000,-7.278373,-0.881066,6.452374,7.140913,-5.470896,-73.874550
1064000,-7.141904,-0.679953,6.588843,4.682898,-4.264789,-69.080658
1068000,-6.861782,-0.567426,6.591237,2.102745,-0.432728,-64.485237
1072000,-6.727707,-0.459687,6.830657,-0.462140,3.674142,-60.454700
1076000,-6.615179,-0.375890,6.835446,-2.920156,7.674142,-56.363098
1080000,-6.715736,-0.306458,6.833052,-5.179698,10.055821,-52.546303
1084000,-6.749255,-0.409408,7.003040,-7.118629,10.941318,-48.714241
1088000,-6.713342,-0.404620,7.149086,-8.920156,10.177958,-45.050121
1092000,-6.687006,-0.464475,7.443573,-9.591911,8.284829,-41.538670
1096000,-6.622362,-0.524330,7.563283,-10.248401,5.414600,-37.859280
1100000,-6.622362,-0.598550,7.824251,-10.507942,0.880249,-34.393631
1104000,-6.481104,-0.653617,8.106767,-9.973591,-4.081583,-31.034853
1108000,-6.382942,-0.634463,8.319851,-10.202599,-9.104485,-27.187525
1112000,-6.045359,-0.653617,8.650250,-9.790385,-14.707538,-24.027220
1116000,-5.516241,-0.629675,8.836999,-9.744583,-17.608301,-21.935617
1120000,-5.341464,-0.548272,8.834604,-10.294202,-19.119751,-19.691341
1124000,-5.193024,-0.538695,9.085996,-10.630079,-21.119751,-17.523403
1128000,-4.829105,-0.481235,9.394848,-10.492675,-20.386927,-14.790579
1132000,-4.407725,-0.332794,9.945514,-10.462141,-16.829676,-12.607373
1136000,-4.173094,-0.270545,9.995792,-10.446874,-12.600668,-10.637908
1140000,-3.981557,-0.241814,9.995792,-10.141530,-8.341125,-8.531037
1144000,-3.813963,-0.172383,9.986216,-9.561378,-3.425095,-6.851647
1148000,-3.849876,-0.079009,10.081984,-9.240767,0.330631,-5.248594
1152000,-4.110844,-0.009577,10.299856,-9.301835,1.399333,-3.233327
1156000,-4.065354,0.067038,10.797850,-7.179698,2.452768,-0.958518
1160000,-3.890578,0.076614,10.702082,-4.431606,4.727577,1.606368
1164000,-3.722984,0.172383,10.661380,-1.759850,4.254295,3.560566
1168000,-3.342306,0.248997,10.520123,1.354653,3.093989,4.766673
1172000,-3.162740,0.313640,10.474632,3.919539,1.475669,5.407895
1176000,-3.052607,0.351948,10.223241,6.209615,-1.135018,5.438429
1180000,-2.930503,0.488417,10.046070,7.385188,-3.241888,6.140719
1184000,-2.794033,0.651223,9.787497,8.316485,-4.646469,6.568200
1188000,-2.533065,0.751779,9.507375,8.866104,-4.264789,6.934612
1192000,-2.284068,0.854730,9.337387,9.476790,-3.959446,6.980413
1196000,-1.965640,0.869095,9.160215,9.782134,-3.165553,6.522398
1200000,-1.798046,0.912191,8.978256,10.377554,-2.112118,6.125452
1204000,-1.565808,0.797269,8.999804,10.255417,-2.707537,5.346826
1208000,-1.515530,0.706290,9.006987,9.705798,-1.654102,4.491864
1212000,-1.601721,0.660800,8.906430,8.667630,-1.180820,3.774307
1216000,-1.587356,0.615310,8.865729,8.179081,-2.295324,3.072016
1220000,-1.539472,0.387861,8.851364,7.721066,-2.066316,2.552932
1224000,-1.675941,0.411803,9.009381,7.537859,-1.913644,2.323925
1228000,-1.838747,0.256180,8.937555,7.293585,-2.524331,2.339192
1232000,-1.951274,0.237026,8.911219,6.988241,-2.524331,2.797207
1236000,-2.066196,0.146046,9.014170,7.293585,-3.577766,3.606368
1240000,-1.996764,0.160412,9.035717,7.140913,-3.226621,4.537665
1244000,-2.082955,0.062249,9.042900,7.415722,-0.829675,6.186521
1248000,-1.934515,0.035913,8.987833,7.522593,-0.188453,7.560566
1252000,-1.833959,-0.011971,8.856153,7.889005,1.414600,8.461329
1256000,-1.683124,-0.023942,8.805874,8.011142,3.979486,9.545299
1260000,-1.546654,-0.047884,8.748413,8.377554,5.124524,10.446062
1264000,-1.484405,-0.069432,8.564059,8.072210,7.017653,11.178886
1268000,-1.465251,-0.124498,8.401254,7.690531,8.468035,11.697970
1272000,-1.233014,-0.208296,8.164227,7.354653,8.788646,11.911711
1276000,-1.007959,-0.184354,8.113950,6.224882,7.826814,11.972779
1280000,-0.826000,-0.186748,8.348581,5.156180,7.368799,11.301023
1284000,-0.763750,-0.174777,8.415619,4.408089,6.208493,10.659802
1288000,-0.782904,-0.239420,8.604761,4.331753,4.254295,10.064383
1292000,-0.916979,-0.361524,8.652645,4.743967,2.849715,9.392627
1296000,-0.926556,-0.404620,8.645462,5.553127,2.391699,9.560566
1300000,-0.943315,-0.502782,8.463503,6.469157,1.994753,9.499497
1304000,-0.809240,-0.423774,8.429984,7.140913,1.842081,9.423162
1308000,-0.756568,-0.464475,8.233660,7.461524,2.529104,9.377359
1312000,-0.708684,-0.452504,8.169016,7.018775,2.712310,9.377359
1316000,-0.387861,-0.483629,8.003817,6.056943,4.040555,9.239955
1320000,-0.215478,-0.605733,8.099585,5.339386,5.628341,8.766672
1324000,-0.213084,-0.761356,8.171411,5.079844,7.307730,8.476596
1328000,-0.390255,-0.816423,8.087613,4.820302,8.315363,8.049115
1332000,-0.646434,-0.790087,8.078036,3.858470,8.330630,8.354459
1336000,-0.600945,-0.818817,8.255207,2.957707,8.193226,8.690337
1340000,-0.476446,-0.871489,8.322245,2.072211,8.071088,8.888810
1344000,-0.418985,-0.823605,8.585608,1.278317,7.002387,8.843008
1348000,-0.253785,-0.809240,8.856153,1.125646,6.361165,8.568199
1352000,-0.246603,-0.912191,8.985439,1.171447,6.300097,8.675070
1356000,-0.325611,-0.881066,9.050082,1.492058,7.048188,8.904078
1360000,-0.433351,-0.828394,8.892065,2.347020,7.658875,9.438428
1364000,-0.272939,-0.732626,8.939949,3.278317,7.155058,9.774306
1368000,-0.021548,-0.730232,8.939949,4.377554,7.674142,9.896443
1372000,-0.074220,-0.608127,8.863335,5.690531,8.071088,9.636902
1376000,-0.165200,-0.531513,8.738836,6.972974,7.384066,9.453695
1380000,-0.067038,-0.337582,8.576031,7.690531,7.475669,9.331558
1384000,-0.086191,-0.213084,8.248025,8.316485,6.987119,9.392627
1388000,-0.050278,-0.241814,8.221688,7.950073,3.750478,8.934611
1392000,-0.074220,-0.193930,8.377312,7.858470,3.261928,8.537665
1396000,0.071826,-0.074220,8.238448,7.721066,3.765745,8.049115
1400000,0.143652,-0.047884,7.903260,6.423356,3.750478,7.224689
1404000,0.165200,0.122104,7.733272,5.156180,4.437501,6.568200
1408000,0.153229,0.043096,7.647080,3.965340,4.193226,6.049116
1412000,0.193930,0.069432,7.433996,2.377554,4.376432,4.934612
1416000,0.165200,0.026336,7.345411,0.682898,4.193226,4.430795
1420000,0.141258,0.007183,7.235278,-1.011759,3.689409,3.667437
1424000,0.246603,-0.002394,7.283162,-2.843820,3.277195,2.705604
1428000,0.258574,-0.033519,7.381324,-4.706415,2.635974,1.362093
1432000,0.177171,-0.043096,7.635109,-6.049927,1.948951,0.278123
1436000,-0.141258,-0.146046,7.728483,-6.950690,0.239028,-0.271495
1440000,-0.392649,-0.165200,8.008605,-7.714049,-1.867843,-0.515770
1444000,-0.241814,-0.131681,8.190564,-8.278934,-2.096850,-0.515770
1448000,-0.162806,-0.193930,8.451532,-7.851454,-0.799140,-0.332564
1452000,-0.179565,-0.239420,8.552089,-7.714049,-0.967079,-0.775312
1456000,-0.208296,-0.325611,8.667010,-7.118629,-1.241889,-0.851648
1460000,-0.270545,-0.318429,8.777143,-6.798018,-2.249522,-1.279129
1464000,-0.074220,-0.244209,8.930372,-6.294202,-1.730438,-1.599739
1468000,0.000000,-0.155623,9.109938,-4.981225,-0.386927,-1.706609
1472000,-0.136469,-0.196325,8.985439,-3.286568,-0.722805,-2.439434
1476000,-0.148441,-0.284910,9.035717,-1.698782,0.147424,-2.760045
1480000,-0.237026,-0.112527,8.949526,-0.569010,1.246661,-2.836380
1484000,-0.234632,-0.153229,8.923190,0.056943,1.689409,-2.836380
1488000,-0.169988,-0.201113,8.920795,0.423356,2.315363,-2.927984
1492000,-0.107739,-0.284910,8.734048,0.927172,2.498570,-3.309663
1496000,-0.210690,-0.284910,8.544906,1.140913,2.101623,-3.950884
1500000,-0.217872,-0.344765,8.674192,0.957707,1.918417,-4.073022
1504000,-0.404620,-0.395043,8.530540,1.018775,1.979486,-4.378365
1508000,-0.524330,-0.414197,8.406042,0.667630,2.223760,-4.454701
1512000,-0.586579,-0.493206,8.295909,-0.034660,2.010020,-4.469968
1516000,-0.598550,-0.562637,8.398860,-1.194965,2.330631,-4.531037
1520000,-0.533907,-0.524330,8.513782,-1.897255,3.429867,-4.958518
1524000,-0.651223,-0.586579,8.530540,-2.019392,3.338264,-4.958518
1528000,-0.610521,-0.679953,8.571242,-1.469774,3.460402,-5.340197
1532000,-0.857124,-0.768539,8.530540,-1.576644,3.964219,-5.492869
1536000,-1.070208,-0.802058,8.552089,-1.225499,4.055821,-5.447067
1540000,-1.288081,-0.754174,8.482656,-0.965957,3.903150,-4.927983
1544000,-1.314417,-0.814029,8.516175,-0.736950,2.834447,-4.729510
1548000,-1.345541,-0.758962,8.523358,-0.507942,2.071089,-4.027220
1552000,-1.374272,-0.653617,8.456321,0.056943,1.414600,-3.828747
1556000,-1.446098,-0.627281,8.432379,0.408088,1.017653,-3.050121
1560000,-1.520318,-0.639252,8.267179,0.698165,0.758111,-2.561571
1564000,-1.513135,-0.572214,8.010999,0.438623,0.330631,-1.660808
1568000,-1.623269,-0.555455,7.941567,0.072211,-0.096850,-0.653174
1572000,-1.386243,-0.478840,8.063671,-0.706415,-0.539598,0.079650
1576000,-1.180341,-0.399832,8.140285,-1.973591,0.162692,0.125452
1580000,-1.163582,-0.418985,7.958326,-3.332370,0.773379,0.125452
1584000,-1.163582,-0.421380,8.008605,-3.912522,0.254295,0.293391
1588000,-1.122881,-0.430956,8.149862,-4.675881,-0.478530,0.400261
1592000,-1.065420,-0.478840,8.188169,-5.576645,0.132157,0.461329
1596000,-1.247379,-0.514753,8.173804,-6.110995,-0.142652,1.010948
1600000,-1.113304,-0.541090,8.197746,-7.118629,-1.501431,0.980413
1604000,-1.072602,-0.574608,8.327033,-8.156797,-2.631201,1.316291
1608000,-1.079785,-0.691924,8.501810,-9.103362,-4.112117,1.163620
1612000,-1.079785,-0.742203,8.731653,-9.912522,-5.501431,1.224688
1616000,-1.177947,-0.794875,8.698134,-10.630079,-6.341125,1.682703
1620000,-1.266533,-0.754174,8.734048,-11.164431,-6.921278,2.308658
1624000,-1.386243,-0.754174,8.906430,-11.637713,-6.906011,3.316291
1628000,-1.103727,-0.790087,8.999804,-12.019393,-6.249522,3.682703
1632000,-0.916979,-0.787692,9.234436,-11.836186,-4.875476,4.278123
1636000,-0.629675,-0.746991,9.325416,-11.027026,-3.364026,4.308658
1640000,-0.414197,-0.785298,9.320627,-9.973591,-1.822041,3.316291
1644000,-0.368707,-0.823605,9.330204,-9.042294,-0.478530,2.873543
1648000,-0.486023,-0.794875,9.279925,-8.049927,0.345898,2.217055
1652000,-0.486023,-0.708684,9.349358,-7.164431,0.269562,1.407894
1656000,-0.627281,-0.751779,9.308656,-5.927790,0.300096,1.087284
1660000,-0.933739,-0.790087,9.212888,-4.416339,-0.631201,1.041482
1664000,-0.895431,-0.739808,9.085996,-3.103362,-2.341125,0.766673
1668000,-1.010353,-0.754174,9.028535,-2.324736,-3.257156,0.812474
1672000,-1.125275,-0.720655,9.121908,-1.149163,-4.157919,0.904078
1676000,-1.326388,-0.713472,8.978256,-0.798018,-4.936545,1.499497
1680000,-1.319205,-0.627281,8.769960,-0.462140,-5.135018,2.064383
1684000,-1.434127,-0.667982,8.662222,-0.614812,-4.783873,2.843009
1688000,-1.118092,-0.598550,8.772355,-0.523209,-3.287690,4.079650
1692000,-0.775721,-0.593762,9.016563,-0.049927,0.483302,4.568200
1696000,-0.572214,-0.514753,8.875306,0.301218,4.468035,4.552933
1700000,-0.591368,-0.579397,8.757990,0.545493,7.399333,4.446063
1704000,-0.519542,-0.521936,8.652645,0.560760,9.445134,4.018581
1708000,-0.610521,-0.517148,8.662222,0.438623,9.750478,4.079650
1712000,-0.634463,-0.490811,8.734048,0.224882,8.590172,3.591101
1716000,-0.718261,-0.430956,8.738836,0.163814,7.445135,3.728505
1720000,-0.634463,-0.430956,8.793902,-0.034660,5.933684,3.606368
1724000,-0.634463,-0.462081,8.628703,-0.309469,4.956585,3.117818
1728000,-0.569820,-0.430956,8.590396,-0.859087,3.994753,2.904078
1732000,-0.608127,-0.440533,8.506598,-1.851454,2.330631,2.491864
1736000,-0.632069,-0.438139,8.532935,-2.446873,1.002386,2.186520
1740000,-0.648829,-0.548272,8.542512,-3.103362,-0.341125,2.308658
1744000,-0.701501,-0.574608,8.638280,-3.790385,-1.226621,2.110184
1748000,-0.500388,-0.603339,8.746018,-4.324736,-0.386927,2.247589
1752000,-0.502782,-0.603339,8.935161,-4.553743,1.353531,2.583467
1756000,-0.404620,-0.529119,9.129091,-4.385805,3.322997,2.415528
1760000,-0.402226,-0.603339,9.174581,-3.775118,5.277195,2.186520
1764000,-0.387861,-0.608127,9.323022,-3.286568,6.116890,2.094917
1768000,-0.536301,-0.612916,9.435549,-2.538476,5.750478,1.972780
1772000,-0.598550,-0.612916,9.380483,-1.423972,5.475669,1.865910
1776000,-0.646434,-0.620098,9.368511,-0.645346,4.651241,1.911711
1780000,-0.579397,-0.579397,9.320627,0.576027,3.735211,1.560566
1784000,-0.605733,-0.579397,9.270349,1.232516,2.330631,1.239955
1788000,-0.543484,-0.538695,9.112331,1.965340,0.635974,0.827742
1792000,-0.651223,-0.497994,8.944737,2.224883,-0.509064,0.476597
1796000,-0.656011,-0.531513,8.860941,2.148547,-1.165553,0.201787
1800000,-0.648829,-0.399832,8.554482,1.873737,-1.516698,0.003314
1804000,-0.658405,-0.435745,8.482656,1.263050,-1.547232,0.033849
1808000,-0.593762,-0.380678,8.418014,0.545493,-1.562499,-0.531037
1812000,-0.541090,-0.316035,8.394072,-0.141530,-1.776240,-0.790579
1816000,-0.524330,-0.325611,8.516175,-0.584278,-0.692270,-0.958518
1820000,-0.519542,-0.313640,8.408437,-1.088094,0.910783,-1.355464
1824000,-0.694318,-0.299275,8.384495,-1.240766,1.918417,-1.401266
1828000,-0.735020,-0.256180,8.463503,-2.019392,1.887883,-1.721877
1832000,-0.809240,-0.330400,8.779537,-2.248400,2.132157,-1.569205
1836000,-0.785298,-0.366313,8.808268,-2.065194,1.796279,-1.676075
1840000,-0.526724,-0.438139,9.009381,-1.454507,2.177959,-1.950884
1844000,-0.462081,-0.418985,9.078813,-0.416339,2.620707,-2.851648
1848000,-0.622492,-0.524330,8.995016,0.484424,1.765745,-3.508136
1852000,-0.770933,-0.481235,8.983045,1.400455,0.208493,-3.782945
1856000,-0.924162,-0.474052,9.021352,2.102745,-0.967079,-3.981419
1860000,-1.024718,-0.572214,8.935161,2.408089,-1.623568,-4.042487
1864000,-1.101333,-0.569820,8.765172,2.728699,-1.715171,-3.370732
1868000,-1.134852,-0.605733,8.590396,2.866104,-3.028148,-2.973785
1872000,-1.060631,-0.687136,8.631097,2.453890,-3.028148,-2.821113
1876000,-1.043872,-0.682347,8.564059,2.255417,-2.081583,-2.561571
1880000,-1.108515,-0.708684,8.439561,1.095111,-1.669369,-2.332564
1884000,-1.089362,-0.802058,8.262390,0.301218,-1.302957,-1.996686
1888000,-1.067814,-0.790087,8.164227,-0.385804,-0.860209,-1.569205
1892000,-1.084573,-0.749385,8.214506,-1.149163,-0.249522,-1.218060
1896000,-1.221043,-0.790087,8.288726,-2.324736,-0.142652,-0.943251
1900000,-1.333570,-0.768539,8.374918,-2.828552,0.193226,-0.515770
1904000,-1.259350,-0.804452,8.477868,-3.591912,0.529104,-0.118823
1908000,-1.175553,-0.727837,8.722076,-3.668247,0.697043,0.339192
1912000,-1.201889,-0.720655,8.757990,-3.714049,1.674142,0.690337
1916000,-1.137246,-0.715866,8.860941,-2.965957,2.666508,0.965146
1920000,-1.225831,-0.749385,8.729259,-2.309469,3.246661,1.270490
1924000,-1.261744,-0.718261,8.506598,-1.561377,2.452768,1.499497
1928000,-1.187524,-0.713472,8.458714,-0.935423,2.055821,1.957513
1932000,-1.096544,-0.600945,8.382100,-0.385804,1.643608,1.896444
1936000,-1.120486,-0.596156,8.456321,-0.462140,0.559638,1.774307
1940000,-0.907402,-0.569820,8.382100,-0.095728,-0.386927,1.682703
1944000,-0.902614,-0.565032,8.470686,-0.080461,-0.951812,1.224688
1948000,-0.931344,-0.509965,8.461109,-0.523209,-1.699904,0.919345
1952000,-1.029507,-0.481235,8.245630,-0.935423,-2.096850,0.598734
1956000,-1.163582,-0.469264,8.322245,-1.347636,-2.677003,0.659803
1960000,-1.256956,-0.483629,8.319851,-1.714049,-2.921278,0.827742
1964000,-1.302446,-0.538695,8.169016,-1.805652,-2.921278,1.316291
1968000,-1.297657,-0.514753,7.951144,-2.156797,-2.447995,2.079650
1972000,-1.221043,-0.560243,8.008605,-2.477408,-2.234255,2.522398
1976000,-1.163582,-0.541090,8.070854,-3.225499,-2.509064,3.224688
1980000,-1.039083,-0.596156,8.238448,-3.271301,-2.066316,3.285757
1984000,-1.077391,-0.529119,8.209718,-3.515576,-1.440362,3.652169
1988000,-1.007959,-0.634463,8.066066,-3.744583,-2.264789,3.667437
1992000,-0.799663,-0.605733,8.171411,-4.828553,-2.738072,3.621635
1996000,-0.921768,-0.553061,8.439561,-5.576645,-2.585400,3.178887
