time_us,ax,ay,az,gx,gy,gz
0,0.656011,-0.177171,8.674192,-3.210232,-5.883110,-1.263861
4000,0.670376,-0.167594,8.803479,-3.179698,-5.928911,-0.989052
8000,0.665588,-0.227449,8.961497,-2.859087,-5.318224,-1.187526
12000,0.605733,-0.268151,8.935161,-2.477408,-4.890743,-1.187526
16000,0.557849,-0.248997,8.853758,-2.569010,-4.310591,-1.111190
20000,0.476446,-0.311246,8.904037,-2.523209,-3.928911,-0.973785
24000,0.464475,-0.308852,8.990228,-2.340003,-3.348759,-0.637907
28000,0.421380,-0.304064,8.920795,-1.668247,-2.722805,-0.286762
32000,0.541090,-0.325611,8.877700,-1.668247,-2.325858,0.110184
36000,0.577003,-0.292093,8.822633,-1.546110,-1.455629,0.384994
40000,0.644040,-0.220267,8.750807,-1.561377,-0.295324,0.476597
44000,0.735020,-0.237026,8.643068,-1.454507,0.300096,0.369726
48000,0.744597,-0.220267,8.793902,-1.759850,0.330631,0.293391
52000,0.830788,-0.205901,8.757990,-1.897255,0.498570,-0.195159
56000,0.842759,-0.179565,8.848969,-2.004125,1.216127,-0.393632
60000,0.790087,-0.129287,8.817844,-1.973591,1.567272,-0.576838
64000,0.883460,-0.126893,8.899248,-1.958324,1.719944,-0.912716
68000,0.964863,-0.169988,8.868123,-1.439240,1.521470,-1.111190
72000,1.022324,-0.184354,8.853758,-1.027026,1.246661,-1.660808
76000,1.041478,-0.102951,8.875306,-0.324736,0.208493,-2.256228
80000,0.979228,-0.150835,8.899248,0.224882,-0.982347,-2.866915
84000,1.007959,-0.112527,8.875306,0.820302,-2.066316,-3.218060
88000,1.010353,-0.177171,9.004593,0.957707,-2.799140,-3.737144
92000,1.051055,-0.088585,9.021352,1.140913,-3.440362,-4.271495
96000,1.019930,-0.117316,8.954314,1.476791,-3.318224,-4.576838
100000,0.974440,-0.189142,8.796297,1.995875,-3.745705,-4.683709
104000,0.869095,-0.191536,8.813056,2.118012,-4.463263,-4.805846
108000,0.981623,-0.186748,8.762778,1.721066,-4.356392,-4.683709
112000,0.943315,-0.217872,8.724471,1.140913,-3.715171,-4.683709
116000,0.945710,-0.234632,8.724471,0.911905,-3.501430,-4.729510
120000,0.921768,-0.215478,8.556877,0.331753,-3.180820,-4.531037
124000,0.936133,-0.217872,8.513782,-0.080461,-2.570133,-4.454701
128000,1.067814,-0.110133,8.549694,-0.584278,-2.173186,-4.302029
132000,1.046266,-0.205901,8.599973,-1.133896,-1.608301,-4.195159
136000,1.017536,-0.148441,8.540117,-1.408705,-1.486163,-4.179892
140000,1.173159,-0.167594,8.619126,-1.637713,-1.654102,-4.225693
144000,1.326388,-0.138864,8.662222,-2.202598,-2.096850,-4.607373
148000,1.379060,-0.079009,8.628703,-2.446873,-2.035782,-4.973785
152000,1.525106,-0.107739,8.621520,-2.798018,-1.989980,-5.187525
156000,1.489193,-0.093374,8.712500,-3.103362,-2.646469,-5.859281
160000,1.742979,-0.035913,8.832211,-3.256034,-3.180820,-6.592105
164000,1.805228,-0.062249,9.045294,-3.133896,-3.623568,-7.401266
168000,1.865083,-0.014365,9.069236,-2.385804,-3.394560,-8.011953
172000,1.934515,-0.062249,9.155427,-1.897255,-3.211354,-8.805846
176000,1.879448,-0.014365,9.193734,-1.637713,-2.493797,-9.721877
180000,1.838747,-0.067038,9.323022,-0.492675,-2.386927,-10.347831
184000,1.915361,-0.093374,9.224859,0.713432,-2.829675,-11.050121
188000,1.841141,-0.086191,9.145850,1.156180,-2.890743,-11.920350
192000,1.872266,-0.062249,9.244013,1.721066,-3.699904,-12.515770
196000,1.910573,-0.033519,9.253590,2.637096,-3.425095,-13.172258
200000,1.970428,-0.129287,9.193734,3.354653,-3.837308,-14.225694
204000,2.015918,0.014365,8.920795,4.011142,-3.883110,-15.050121
208000,2.068590,-0.110133,9.018958,4.240149,-4.280056,-15.996686
212000,2.049437,-0.057461,8.856153,3.934806,-4.386927,-16.805845
216000,2.003947,-0.052672,8.793902,3.476791,-4.188453,-17.721876
220000,1.968034,-0.074220,8.729259,2.957707,-3.989980,-18.118822
224000,1.944092,-0.090980,8.683769,2.316485,-3.531965,-18.836380
228000,1.972822,-0.136469,8.556877,1.308852,-2.356392,-19.462334
232000,1.896208,-0.095768,8.576031,0.102745,-1.898377,-19.691341
236000,1.996764,-0.179565,8.702923,-0.095728,-0.570133,-19.828747
240000,1.912967,-0.191536,8.583213,-1.027026,1.170325,-19.950884
244000,2.085350,-0.110133,8.540117,-1.591912,2.147424,-20.057755
248000,2.205060,-0.143652,8.779537,-2.370538,2.742844,-20.515770
252000,2.343924,-0.189142,8.810662,-2.859087,3.933684,-20.866915
256000,2.521094,-0.148441,8.968679,-2.935423,4.468035,-21.752411
260000,2.645593,-0.160412,9.095572,-3.317102,4.941318,-22.866915
264000,2.698265,-0.124498,9.215282,-3.072828,5.078722,-24.073021
268000,2.815581,-0.143652,9.229648,-2.202598,5.384066,-25.385998
272000,2.949656,-0.090980,9.270349,-1.576644,5.628341,-26.912716
276000,3.028665,-0.045490,9.284714,-1.042293,4.895516,-28.469967
280000,3.002329,-0.117316,9.428367,-0.141530,3.842081,-29.981419
284000,3.035848,-0.098162,9.461885,0.682898,2.895516,-31.462334
288000,2.999935,-0.102951,9.409213,1.446256,1.658875,-32.683708
292000,3.071761,-0.138864,9.428367,1.950073,0.926050,-34.011951
296000,3.169923,-0.141258,9.512163,2.805035,1.109257,-35.218060
300000,3.193865,-0.110133,9.497798,3.583661,1.872615,-36.729511
304000,3.263297,-0.158017,9.416395,4.469157,2.544371,-38.011951
308000,3.325546,-0.181959,9.363723,5.385188,3.246661,-39.492870
312000,3.280056,-0.198719,9.155427,6.224882,3.811547,-40.943249
316000,3.256114,-0.213084,9.021352,6.377554,4.651241,-42.332561
320000,3.222595,-0.050278,8.781932,5.705799,4.284829,-43.996685
324000,3.076549,-0.215478,8.999804,5.247783,4.101623,-44.851646
328000,3.179500,-0.213084,9.114726,5.156180,5.414600,-45.782944
332000,3.306392,-0.248997,8.896853,4.728699,6.345898,-46.805847
336000,3.308787,-0.275333,8.877700,3.904272,7.063455,-48.225693
340000,3.390190,-0.330400,8.789114,3.095111,8.025287,-49.859280
344000,3.495534,-0.292093,9.054871,2.850837,8.880248,-51.233326
348000,3.347094,-0.306458,8.920795,2.927173,8.926050,-52.698975
352000,3.301604,-0.335188,8.992621,2.453890,8.468035,-54.027218
356000,3.397372,-0.306458,8.961497,2.133279,9.322997,-55.416534
360000,3.332729,-0.354342,9.054871,2.026409,10.177958,-56.576839
364000,3.325546,-0.378284,9.131485,2.118012,10.177958,-57.676075
368000,3.445256,-0.459687,9.143456,2.514959,10.590172,-58.653175
372000,3.536236,-0.423774,9.126697,2.881371,11.277195,-60.576839
376000,3.624821,-0.459687,8.978256,2.927173,11.155058,-62.210426
380000,3.675100,-0.476446,8.956709,2.743967,10.941318,-63.782944
384000,3.734955,-0.507571,9.050082,2.713432,10.727577,-65.889816
388000,3.758897,-0.466869,9.107543,2.957707,11.536737,-67.615005
392000,3.756502,-0.538695,8.829816,2.805035,11.765745,-69.447067
396000,3.861847,-0.497994,8.669404,2.896638,11.536737,-71.431801
400000,3.916914,-0.507571,8.657434,2.942440,11.689409,-73.508133
404000,3.876213,-0.493206,8.669404,2.560760,11.567271,-75.996689
408000,3.993528,-0.555455,8.662222,2.652363,10.742844,-78.363098
412000,4.010288,-0.639252,8.748413,2.423356,10.116890,-81.065384
416000,4.010288,-0.651223,8.796297,2.805035,10.574905,-83.340195
420000,3.940856,-0.696713,8.808268,2.957707,10.651241,-85.798210
424000,3.885789,-0.675165,8.793902,3.156180,11.322997,-88.088287
428000,3.782839,-0.833182,8.734048,3.614195,11.490935,-90.393631
432000,3.574543,-0.864307,8.659827,4.224883,11.216126,-92.164627
436000,3.552995,-0.986411,8.468291,3.858470,10.498569,-94.332565
440000,3.404555,-1.019930,8.566454,3.278317,10.406966,-95.630272
444000,3.268085,-1.096544,8.552089,2.881371,10.208493,-97.126457
448000,3.294421,-1.247379,8.741230,2.927173,10.025287,-97.569206
452000,3.244143,-1.235408,8.588001,2.927173,9.964218,-99.202789
456000,3.263297,-1.331176,8.784326,2.728699,11.002386,-100.011955
460000,3.270479,-1.386243,8.602366,2.087478,12.269562,-101.386002
464000,3.306392,-1.343147,8.688558,1.156180,13.490935,-102.637909
468000,3.390190,-1.436521,8.765172,-0.049927,14.895515,-104.179893
472000,3.450045,-1.474828,8.813056,-0.828552,16.162691,-105.721878
476000,3.497929,-1.534683,8.892065,-1.393438,17.078722,-107.859283
480000,3.584120,-1.582567,8.995016,-1.546110,18.208492,-109.706612
484000,3.466804,-1.625663,9.160215,-1.164430,19.185593,-111.844017
488000,3.272874,-1.726219,9.071630,-0.904888,20.376432,-113.553940
492000,3.119645,-1.719037,8.968679,-0.370538,20.803913,-115.233330
496000,2.810793,-1.874660,8.908825,0.469157,20.498569,-116.897446
500000,2.621651,-1.900996,8.777143,1.156180,18.971851,-117.660805
504000,2.406173,-1.900996,8.616732,1.721066,16.773378,-118.790581
508000,2.427721,-1.956063,8.667010,1.797401,15.353531,-119.416534
512000,2.576161,-1.946486,8.736442,2.041676,14.223760,-120.424164
516000,2.645593,-1.944092,8.719683,2.453890,13.292462,-121.920349
520000,2.655170,-1.881842,8.611943,2.972974,13.078722,-123.202789
524000,2.609680,-1.994370,8.463503,2.896638,13.490935,-124.561569
528000,2.767697,-2.018312,8.288726,2.041676,14.895515,-126.011955
532000,2.813187,-1.982399,8.291121,0.789768,16.697042,-127.095924
536000,2.932897,-1.953669,8.281544,-0.721682,19.445133,-128.424164
540000,3.169923,-1.987187,8.355764,-2.233133,22.758112,-129.782944
544000,3.313575,-2.018312,8.238448,-3.546110,26.529104,-131.615005
548000,3.323152,-2.015918,8.159439,-4.920156,30.040554,-133.935623
552000,3.268085,-2.116474,8.003817,-6.156797,33.002384,-135.828751
556000,3.380613,-2.166753,8.068460,-7.668247,35.384064,-138.210419
560000,3.361459,-2.281674,8.195353,-8.569011,36.834446,-140.576843
564000,3.311181,-2.420538,8.226477,-9.393438,37.781013,-143.386002
568000,3.239355,-2.616863,8.082825,-9.469774,37.032921,-146.439438
572000,3.076549,-2.736573,8.176199,-9.469774,34.742844,-149.233322
576000,2.889802,-2.932897,8.295909,-9.027026,32.177959,-151.492874
580000,2.712631,-3.002329,8.621520,-8.202599,28.513836,-153.996689
584000,2.487576,-3.260903,9.009381,-6.080462,23.567272,-156.042480
588000,2.947262,-3.239355,8.985439,-5.698782,23.719944,-159.782944
592000,2.671929,-3.366248,8.774749,-5.652981,23.903149,-162.531036
596000,2.264915,-3.545813,8.942344,-5.164431,22.773378,-164.424164
600000,1.929727,-3.591303,9.325416,-4.843820,22.941317,-165.462341
604000,1.745373,-3.780444,9.495404,-3.286568,24.223761,-166.424164
608000,1.594538,-3.881001,9.241618,-1.714049,27.506203,-167.050125
612000,1.146823,-3.974375,9.117120,-2.080461,30.483301,-166.836380
616000,1.055843,-4.098873,9.033323,-1.668247,32.758110,-166.332565
620000,0.866701,-4.120421,8.935161,-1.515576,38.284828,-165.263855
624000,0.792481,-3.983952,8.652645,-1.988858,43.063454,-164.042480
628000,0.847547,-4.074931,8.477868,-2.675881,47.475670,-163.034851
632000,0.837971,-4.012682,8.188169,-3.622446,50.391701,-162.378372
636000,1.005565,-4.010288,8.066066,-4.706415,51.826813,-162.347824
640000,1.156399,-3.933673,7.929596,-5.805653,53.475670,-162.302032
644000,1.453280,-3.919308,8.063671,-6.599545,54.910782,-163.309662
648000,1.819593,-3.873818,8.137892,-6.660614,56.177959,-164.515762
652000,1.819593,-3.790021,7.852982,-6.477407,54.132156,-166.927979
656000,2.027889,-3.756502,7.627927,-7.714049,51.521469,-169.767685
660000,2.027889,-3.691859,7.517793,-9.836186,50.315365,-172.607376
664000,1.994370,-3.739743,7.402872,-12.110995,48.483303,-175.706604
668000,1.877054,-3.751714,7.596802,-13.775117,45.597805,-178.011948
672000,1.896208,-3.739743,7.716512,-14.217866,44.132156,-180.668442
676000,1.900996,-3.744531,7.692570,-14.645347,42.987118,-183.599731
680000,1.936909,-3.711013,7.766790,-15.164432,42.742844,-186.714249
684000,1.644817,-3.746926,7.814674,-15.179698,43.429867,-189.294388
688000,1.266533,-3.852271,7.934384,-14.431607,43.353531,-190.912720
692000,0.988805,-3.892972,8.039729,-13.454507,44.452766,-191.950882
696000,0.749385,-3.895366,8.090008,-12.340003,46.391701,-192.607376
700000,0.663194,-3.878607,8.020576,-11.683515,47.536736,-193.141724
704000,0.615310,-4.043807,8.145074,-10.859087,49.765743,-193.844009
708000,0.663194,-4.266468,8.372523,-7.805653,55.124523,-194.775314
712000,0.146046,-4.240131,7.675811,-4.034659,54.437500,-196.057755
716000,-0.447716,-4.412514,7.158663,-3.775118,48.971851,-196.973785
720000,-0.873884,-4.556166,7.433996,-2.660614,46.086357,-195.874542
724000,-1.237802,-4.721366,7.817069,-1.194965,44.498569,-194.851654
728000,-1.458069,-4.848258,7.903260,0.713432,41.292461,-193.584473
732000,-1.776498,-4.960786,7.651869,2.805035,38.239029,-193.050125
736000,-2.245761,-4.982334,7.718906,3.995875,35.719944,-191.492874
740000,-2.576161,-5.073313,7.694964,5.247783,33.933685,-188.943253
744000,-2.873042,-5.226542,7.941567,6.530226,33.216125,-186.240967
748000,-3.076549,-5.260061,8.425196,8.789768,35.689407,-182.729507
752000,-3.335123,-5.284003,8.674192,12.285951,38.376431,-179.386002
756000,-3.651158,-5.183447,8.511387,15.782134,40.177959,-176.317291
760000,-4.003105,-5.099649,8.157045,17.858471,41.628342,-172.378372
764000,-4.273650,-4.939238,7.975086,18.377554,40.987118,-169.172256
768000,-4.359841,-4.922479,7.869741,19.018776,41.460400,-166.149353
772000,-4.398149,-4.920084,7.874529,19.766867,42.254295,-163.126450
776000,-4.876989,-4.800375,7.649475,20.484425,39.597805,-159.599731
780000,-5.252879,-4.733337,7.247249,20.591295,36.269562,-155.615005
784000,-5.631162,-4.539406,6.974309,20.362288,30.010019,-152.240967
788000,-5.750873,-4.347870,6.713342,19.247784,24.101622,-148.164627
792000,-5.801151,-4.252102,6.823475,18.056944,17.918417,-144.363098
796000,-5.820304,-4.204218,6.864176,16.789768,11.536737,-140.866913
800000,-5.935226,-4.060566,6.701371,15.263050,5.292463,-137.553940
804000,-6.009446,-4.027047,6.607996,13.476790,-0.035782,-133.844009
808000,-5.995081,-4.041412,6.394913,11.003509,-4.722805,-130.393631
812000,-5.935226,-4.015076,6.212954,8.072210,-8.478530,-127.004318
816000,-5.846641,-4.062960,6.354211,5.659997,-9.822042,-123.828743
820000,-5.999869,-4.053383,6.296751,4.056943,-12.493797,-120.882179
824000,-6.083666,-4.005499,6.196194,1.278317,-15.394561,-117.706612
828000,-6.153099,-3.974375,6.263232,-1.347636,-16.967079,-114.332565
832000,-6.368577,-3.912126,6.275203,-4.049927,-18.631203,-110.698975
836000,-6.399701,-3.811569,6.392519,-6.675881,-19.959446,-107.156990
840000,-6.047753,-3.852271,6.689400,-9.347637,-20.386927,-104.149361
844000,-5.985504,-3.797204,7.278373,-10.981225,-20.264790,-101.172256
848000,-5.889736,-3.775656,7.891289,-11.301835,-20.249523,-98.912712
852000,-5.918467,-3.667917,8.200141,-10.462141,-19.959446,-95.645538
856000,-5.963956,-3.600879,8.252813,-10.187331,-17.486164,-92.592102
860000,-6.074090,-3.572149,8.358158,-9.698782,-15.760973,-89.447067
864000,-6.205771,-3.533842,8.657434,-8.859087,-14.112118,-86.149361
868000,-6.196194,-3.495534,8.808268,-8.004126,-11.974713,-82.317299
872000,-6.253655,-3.495534,9.081207,-6.599545,-9.516698,-78.729507
876000,-6.162675,-3.347094,9.016563,-4.721683,-7.547232,-75.080658
880000,-6.086061,-3.258508,9.097966,-2.813286,-5.150285,-71.370728
884000,-5.985504,-3.126827,9.052477,-0.920156,-2.341125,-67.828743
888000,-5.949591,-3.038242,9.045294,0.774501,1.185592,-64.622643
892000,-5.882554,-2.873042,8.858546,2.392821,2.681776,-61.477600
896000,-5.801151,-2.868254,8.678981,3.446256,3.109257,-59.065388
900000,-5.695806,-2.726996,8.293514,4.118012,4.193226,-56.698975
904000,-5.588067,-2.645593,7.996634,4.163814,3.887883,-54.607372
908000,-5.355829,-2.454057,7.785944,3.965340,3.567272,-53.111191
912000,-5.221754,-2.396596,7.668628,3.186715,2.864982,-51.798210
916000,-5.092467,-2.334347,7.513005,2.774501,1.445134,-50.592106
920000,-5.090073,-2.279280,7.359776,2.866104,0.727577,-49.660809
924000,-5.216966,-2.248155,7.173028,1.721066,0.177959,-48.683708
928000,-5.322310,-2.236184,6.912060,1.461524,0.162692,-46.408897
932000,-5.657499,-2.418144,6.734890,0.591295,-3.165553,-44.103554
936000,-5.698200,-2.346318,6.763620,-1.469774,-5.211354,-41.416534
940000,-5.693412,-2.403779,6.782773,-3.591912,-5.440361,-38.286762
944000,-5.772420,-2.418144,6.701371,-5.759851,-6.325858,-35.156990
948000,-5.561730,-2.360683,6.821081,-8.309469,-6.875476,-32.118824
952000,-5.269638,-2.379837,7.091625,-10.752217,-5.638835,-29.218060
956000,-5.099649,-2.489970,7.117962,-12.507943,-3.272423,-26.332563
960000,-5.111620,-2.396596,7.211336,-14.187331,-1.867843,-23.981419
964000,-4.941632,-2.434903,7.390901,-16.080460,-0.463263,-21.431799
968000,-4.762067,-2.513912,7.762002,-17.378170,1.109257,-18.943251
972000,-4.692636,-2.468422,8.082825,-18.340002,2.177959,-16.668442
976000,-4.625597,-2.434903,8.358158,-18.340002,1.765745,-14.546305
980000,-4.407725,-2.346318,8.628703,-18.156796,2.452768,-12.500503
984000,-4.153940,-2.245761,8.992621,-17.530842,2.895516,-10.485236
988000,-4.110844,-2.293645,9.071630,-15.775117,2.559638,-8.653174
992000,-3.950433,-2.240973,9.282320,-14.049928,2.330631,-7.111189
996000,-3.883395,-2.135628,9.327810,-12.080461,1.704676,-5.508136
1000000,-3.641581,-2.157176,9.368511,-9.622446,0.788646,-3.905083
1004000,-3.430891,-2.070984,9.291897,-7.286569,-0.264789,-2.729510
1008000,-3.153164,-2.011129,9.227253,-5.362904,-2.188453,-1.599739
1012000,-2.734178,-1.958457,9.528923,-3.515576,-1.867843,-0.882182
1016000,-2.521094,-1.963245,9.593566,-1.607178,0.849715,-0.042487
1020000,-2.485181,-1.948880,9.277532,-0.126262,2.712310,0.507131
1024000,-2.437297,-1.965640,9.155427,0.637096,3.429867,0.919345
1028000,-2.444480,-1.903390,8.832211,1.049310,3.887883,1.774307
1032000,-2.468422,-1.908179,8.695741,0.576027,4.086356,2.720871
1036000,-2.336741,-1.903390,8.552089,0.011142,3.948951,3.484231
1040000,-2.293645,-1.848324,8.480263,-0.569010,3.155058,4.339192
1044000,-2.205060,-1.829170,8.544906,-1.439240,2.422234,5.026215
1048000,-2.013524,-1.795651,8.487445,-2.294202,2.544371,5.957513
1052000,-1.958457,-1.800440,8.547300,-2.950690,3.246661,6.766673
1056000,-1.860295,-1.766921,8.528147,-4.217866,2.910783,7.667436
1060000,-1.726219,-1.769315,8.432379,-4.950690,3.093989,8.476596
1064000,-1.628057,-1.719037,8.248025,-6.004126,3.048188,9.392627
1068000,-1.455675,-1.699883,8.147469,-6.996491,2.254295,9.972779
1072000,-1.237802,-1.673547,8.252813,-8.080462,1.063455,10.140718
1076000,-1.000776,-1.556231,8.245630,-8.920156,0.926050,9.972779
1080000,-0.814029,-1.496376,8.360553,-9.943057,1.246661,9.881176
1084000,-0.584185,-1.438915,8.420407,-11.011759,1.231394,9.209421
1088000,-0.615310,-1.465251,8.681376,-11.714049,1.918417,8.598734
1092000,-0.684742,-1.453280,8.832211,-11.775118,1.689409,8.278123
1096000,-0.514753,-1.426944,8.801085,-11.637713,1.842081,8.339191
1100000,-0.378284,-1.477222,9.107543,-10.950690,2.269562,7.713238
1104000,-0.184354,-1.546654,9.196129,-10.202599,2.819180,7.270490
1108000,-0.105345,-1.527501,9.370906,-8.721683,2.941318,6.430795
1112000,-0.083797,-1.651999,9.488221,-7.393438,2.590173,5.316291
1116000,-0.251391,-1.738190,9.464279,-5.805653,1.582539,4.171253
1120000,-0.414197,-1.843535,9.545682,-4.507942,0.529104,3.468963
1124000,-0.579397,-1.829170,9.591172,-2.904888,-0.768606,3.560566
1128000,-0.586579,-1.910573,9.844957,-1.790385,-1.562499,3.438429
1132000,-0.548272,-1.848324,10.058042,0.270684,-0.142652,3.530032
1136000,-0.665588,-1.857901,10.101137,2.056943,1.643608,4.049116
1140000,-0.600945,-1.960851,9.715671,3.278317,3.429867,4.247589
1144000,-0.560243,-1.903390,9.672575,4.362287,5.521471,4.751406
1148000,-0.454898,-1.814805,9.385271,5.721066,6.895516,4.904078
1152000,-0.553061,-1.848324,9.097966,6.179081,7.429867,5.270490
1156000,-0.505177,-1.747767,8.868123,6.255417,7.536737,5.575833
1160000,-0.296881,-1.683124,8.573636,5.766867,7.796279,5.606368
1164000,-0.057461,-1.549049,8.489840,4.972974,7.887883,5.239955
1168000,0.129287,-1.539472,8.372523,4.118012,7.887883,4.384994
1172000,0.067038,-1.520318,8.362947,3.156180,7.124524,3.499497
1176000,0.026336,-1.592144,8.298303,1.965340,5.903150,2.461329
1180000,-0.035913,-1.596933,8.339005,0.682898,4.681776,1.468963
1184000,-0.117316,-1.618480,8.283937,-0.248400,3.231394,0.995681
1188000,-0.373495,-1.628057,8.310274,-0.843820,1.582539,0.369726
1192000,-0.486023,-1.675941,8.157045,-1.225499,-0.539598,0.064383
1196000,-0.497994,-1.723825,8.346188,-1.423972,-2.157919,0.064383
1200000,-0.545878,-1.754950,8.499416,-1.500308,-2.493797,-0.118823
1204000,-0.620098,-1.742979,8.312668,-1.851454,-1.867843,-0.073022
1208000,-0.608127,-1.738190,8.236053,-2.248400,-1.272423,0.049116
1212000,-0.514753,-1.721431,8.439561,-2.706415,-0.081583,0.049116
1216000,-0.569820,-1.750161,8.540117,-2.691148,0.605440,-0.286762
1220000,-0.675165,-1.759738,8.609550,-2.355270,0.758111,-0.225693
1224000,-0.794875,-1.735796,8.595184,-1.622446,1.445134,-0.164625
1228000,-0.871489,-1.745373,8.549694,-1.439240,1.735211,0.278123
1232000,-0.804452,-1.764527,8.542512,-1.423972,1.765745,0.476597
1236000,-0.742203,-1.754950,8.616732,-1.225499,1.964218,0.644536
1240000,-0.675165,-1.699883,8.516175,-1.317102,2.010020,0.720871
1244000,-0.440533,-1.692701,8.623915,-1.057560,2.315363,0.430795
1248000,-0.464475,-1.678335,8.588001,-1.133896,2.895516,-0.057755
1252000,-0.387861,-1.687912,8.626308,-1.271301,3.231394,-0.653174
1256000,-0.433351,-1.759738,8.561666,-1.103362,4.345898,-1.050121
1260000,-0.428562,-1.683124,8.418014,-0.798018,4.697043,-1.370732
1264000,-0.466869,-1.731008,8.468291,-0.767484,5.109257,-1.691342
1268000,-0.550666,-1.798046,8.535329,-0.828552,5.994753,-1.828747
1272000,-0.553061,-1.798046,8.530540,-1.164430,6.788646,-1.721877
1276000,-0.670376,-1.754950,8.556877,-0.798018,7.078722,-2.027220
1280000,-0.644040,-1.795651,8.485051,-0.736950,7.109257,-2.149358
1284000,-0.600945,-1.793257,8.628703,-0.233133,7.002387,-2.439434
1288000,-0.577003,-1.745373,8.655039,-0.110996,7.460402,-2.836380
1292000,-0.577003,-1.802834,8.671799,-0.049927,7.475669,-3.095922
1296000,-0.636858,-1.896208,8.722076,0.560760,7.155058,-3.294396
1300000,-0.830788,-1.939303,8.614338,1.140913,6.162692,-3.828747
1304000,-1.003170,-1.867477,8.564059,1.476791,4.681776,-3.599739
1308000,-1.070208,-1.963245,8.525752,1.843203,3.811547,-3.492869
1312000,-1.084573,-1.944092,8.465898,2.163814,2.758112,-3.431800
1316000,-1.218649,-1.944092,8.434772,1.843203,1.765745,-2.866915
1320000,-1.249773,-1.989582,8.413225,1.812669,1.109257,-2.271495
1324000,-1.331176,-1.903390,8.190564,1.324119,0.681776,-2.027220
1328000,-1.333570,-1.912967,8.130709,0.942440,0.452768,-1.294396
1332000,-1.297657,-1.812411,8.054094,-0.034660,1.048188,-0.469968
1336000,-1.309628,-1.757344,7.903260,-0.782751,1.475669,0.079650
1340000,-1.244985,-1.769315,7.917625,-2.110996,1.506203,0.705604
1344000,-1.029507,-1.788469,8.032547,-3.225499,1.948951,1.041482
1348000,-0.993594,-1.707066,8.154651,-3.836186,3.353531,1.133085
1352000,-1.034295,-1.738190,8.159439,-3.943056,3.674142,1.301024
1356000,-1.151611,-1.680730,8.092402,-4.202599,3.322997,1.255223
1360000,-1.156399,-1.666364,8.135497,-4.965958,2.742844,1.667436
1364000,-1.094150,-1.640028,8.255207,-5.347637,2.727577,1.896444
1368000,-1.120486,-1.654393,8.408437,-5.332370,2.773379,1.789574
1372000,-1.022324,-1.630451,8.367735,-4.950690,1.933684,1.820108
1376000,-0.950498,-1.587356,8.398860,-4.217866,1.704676,1.636902
1380000,-0.988805,-1.587356,8.274361,-4.080462,1.460402,1.652169
1384000,-0.995988,-1.546654,8.336611,-3.607178,1.002386,1.728505
1388000,-0.907402,-1.568202,8.243237,-3.790385,0.071089,1.896444
1392000,-0.524330,-1.441309,8.240842,-4.492675,-0.478530,1.270490
1396000,-0.316035,-1.465251,8.336611,-4.584278,-0.081583,0.507131
1400000,-0.390255,-1.438915,8.224083,-4.614813,-0.890743,-0.592106
1404000,-0.428562,-1.443704,8.413225,-4.324736,-2.310591,-1.508136
1408000,-0.488417,-1.520318,8.559271,-3.927789,-2.173186,-1.981419
1412000,-0.679953,-1.493982,8.398860,-3.943056,-2.661736,-2.225693
1416000,-0.629675,-1.479617,8.437167,-4.080462,-3.394560,-2.240961
1420000,-0.517148,-1.565808,8.825027,-4.416339,-2.890743,-2.347831
1424000,-0.387861,-1.651999,8.987833,-4.202599,-1.257156,-2.790579
1428000,-0.529119,-1.587356,9.224859,-3.622446,-0.478530,-3.202793
1432000,-0.608127,-1.683124,9.117120,-3.011759,-0.051049,-3.553938
1436000,-0.778116,-1.783680,9.057265,-2.462140,1.170325,-3.355464
1440000,-0.861913,-1.742979,9.184157,-2.034660,1.857348,-2.989052
1444000,-0.890643,-1.800440,9.224859,-1.546110,2.574905,-2.607373
1448000,-0.873884,-1.838747,9.279925,-1.072828,3.155058,-2.439434
1452000,-0.974440,-1.841141,9.296685,-0.309469,3.460402,-2.515770
1456000,-0.998382,-1.829170,9.184157,0.484424,3.521470,-2.424167
1460000,-0.974440,-1.850718,9.169792,0.850837,4.162692,-2.256228
1464000,-1.077391,-1.843535,8.949526,1.369921,4.361165,-2.469968
1468000,-1.168370,-1.893813,8.923190,1.751600,4.132157,-1.996686
1472000,-1.273715,-1.831564,8.638280,1.980608,3.338264,-1.889816
1476000,-1.302446,-1.819593,8.645462,1.385188,2.177959,-1.691342
1480000,-1.216254,-1.833959,8.501810,1.201982,1.811547,-1.202793
1484000,-1.328782,-1.802834,8.482656,0.835569,1.017653,-1.095922
1488000,-1.345541,-1.874660,8.353370,0.530226,0.529104,-0.714243
1492000,-1.340753,-1.879448,8.350976,-0.126262,0.666508,-0.225693
1496000,-1.233014,-1.807622,8.180987,-0.935423,0.422234,0.323925
1500000,-1.290475,-1.848324,8.269572,-1.775118,0.391699,0.384994
1504000,-1.352724,-1.843535,8.233660,-2.217866,0.208493,1.102551
1508000,-1.273715,-1.821988,8.145074,-2.996492,0.147424,1.468963
1512000,-0.974440,-1.881842,8.279149,-3.378171,0.483302,1.530032
1516000,-0.775721,-1.917756,8.449138,-3.301835,1.704676,1.392627
1520000,-0.881066,-1.972822,8.568848,-3.057560,2.116890,1.041482
1524000,-0.876278,-1.946486,8.645462,-2.736950,2.025287,1.041482
1528000,-0.919373,-1.889025,8.690952,-2.675881,1.750478,0.934612
1532000,-1.067814,-1.908179,8.724471,-2.340003,1.353531,0.949879
1536000,-1.039083,-1.874660,8.971074,-1.729316,0.758111,0.995681
1540000,-0.945710,-1.836353,8.908825,-0.675881,0.727577,1.301024
1544000,-0.849942,-1.812411,8.973468,0.423356,0.406966,1.072016
1548000,-0.723049,-1.831564,8.901642,1.263050,0.544371,0.995681
1552000,-0.675165,-1.769315,8.944737,1.995875,0.864982,0.598734
1556000,-0.730232,-1.812411,8.765172,2.713432,1.338264,0.583467
1560000,-0.746991,-1.735796,8.664616,3.354653,1.277195,0.339192
1564000,-0.828394,-1.747767,8.590396,3.247783,1.338264,0.155986
1568000,-0.854730,-1.790863,8.485051,3.217249,1.552005,0.186520
1572000,-0.893037,-1.778892,8.267179,2.713432,1.093989,0.766673
1576000,-0.830788,-1.752556,8.034941,2.163814,0.666508,0.705604
1580000,-0.835576,-1.776498,8.008605,1.324119,0.498570,0.675070
1584000,-0.804452,-1.754950,7.970297,0.224882,-0.249522,0.766673
1588000,-0.622492,-1.788469,8.200141,-0.660614,-0.753339,0.720871
1592000,-0.588974,-1.786075,8.281544,-0.736950,-0.432728,0.125452
1596000,-0.615310,-1.778892,8.288726,-0.706415,-0.142652,-0.195159
1600000,-0.694318,-1.745373,8.264784,-0.324736,0.330631,-0.302029
1604000,-0.790087,-1.869871,8.336611,0.392821,0.513837,-0.515770
1608000,-0.871489,-1.812411,8.343793,0.438623,0.559638,-0.271495
1612000,-0.758962,-1.867477,8.331821,0.133279,0.132157,-0.454701
1616000,-0.756568,-1.769315,8.339005,0.163814,0.315363,-0.347831
1620000,-0.787692,-1.781286,8.336611,0.316485,-0.096850,-0.393632
1624000,-0.818817,-1.769315,8.274361,0.316485,-0.417461,-0.240961
1628000,-0.715866,-1.733402,8.286332,-0.233133,0.132157,-0.210426
1632000,-0.735020,-1.752556,8.178593,-0.553744,0.727577,0.049116
1636000,-0.811634,-1.757344,8.221688,-1.194965,0.697043,0.079650
1640000,-0.775721,-1.685518,8.030152,-1.378171,0.559638,0.110184
1644000,-0.711078,-1.781286,8.154651,-2.217866,0.025287,0.217055
1648000,-0.754174,-1.829170,8.224083,-2.767484,0.223760,0.003314
1652000,-0.735020,-1.719037,8.240842,-3.271301,0.223760,-0.057755
1656000,-0.754174,-1.769315,8.295909,-3.439240,0.330631,0.064383
1660000,-0.713472,-1.666364,8.362947,-3.591912,0.330631,0.033849
1664000,-0.651223,-1.810017,8.394072,-3.485041,0.330631,-0.408900
1668000,-0.677559,-1.805228,8.367735,-3.515576,-0.096850,-0.775312
1672000,-0.797269,-1.831564,8.365341,-2.859087,-0.677003,-0.698976
1676000,-0.849942,-1.848324,8.520964,-2.675881,-1.226621,-0.897449
1680000,-0.854730,-1.869871,8.566454,-2.340003,-0.783873,-0.546304
1684000,-0.806846,-1.881842,8.561666,-1.805652,-0.432728,-0.668442
1688000,-0.797269,-1.826776,8.518570,-1.164430,-0.081583,-0.683709
1692000,-0.797269,-1.886631,8.623915,-0.950690,0.239028,-0.958518
1696000,-0.792481,-1.817199,8.576031,-0.691148,0.819180,-0.973785
1700000,-0.723049,-1.812411,8.535329,-0.675881,1.246661,-1.233327
1704000,-0.787692,-1.860295,8.446744,-0.660614,1.674142,-1.416533
1708000,-0.763750,-1.920150,8.410830,-0.981224,1.719944,-1.385999
1712000,-0.723049,-1.936909,8.453926,-0.843820,1.903150,-1.416533
1716000,-0.821211,-1.920150,8.477868,-0.614812,2.025287,-1.844014
1720000,-0.811634,-1.980005,8.602366,-1.042293,1.567272,-1.935617
1724000,-0.952892,-1.972822,8.671799,-1.561377,1.689409,-1.981419
1728000,-1.127669,-1.972822,8.667010,-1.759850,1.139791,-1.706609
1732000,-1.189918,-1.994370,8.465898,-1.927789,0.193226,-1.309663
1736000,-1.199495,-2.051831,8.576031,-1.927789,0.040554,-0.637907
1740000,-1.130063,-1.999158,8.468291,-2.110996,0.086356,-0.286762
1744000,-1.072602,-1.958457,8.566454,-2.217866,-0.005247,0.018581
1748000,-1.041478,-1.980005,8.571242,-2.492675,0.559638,0.278123
1752000,-1.003170,-1.891419,8.674192,-2.782751,1.063455,0.201787
1756000,-1.082179,-1.903390,8.707711,-2.752217,2.010020,0.293391
1760000,-1.096544,-1.860295,8.559271,-2.630080,2.330631,0.354459
1764000,-1.060631,-1.889025,8.669404,-2.340003,2.437501,0.690337
1768000,-1.065420,-1.841141,8.619126,-2.080461,2.437501,0.690337
1772000,-1.091756,-1.941698,8.645462,-1.698782,1.796279,0.598734
1776000,-1.144428,-1.783680,8.604761,-1.378171,1.139791,0.720871
1780000,-1.127669,-1.771709,8.614338,-1.057560,0.635974,0.537665
1784000,-1.118092,-1.738190,8.631097,-0.935423,-0.051049,0.598734
1788000,-1.130063,-1.742979,8.566454,-0.721682,-0.157919,0.629268
1792000,-1.247379,-1.735796,8.611943,-0.798018,-0.371659,1.072016
1796000,-1.156399,-1.726219,8.568848,-0.813286,-0.096850,1.224688
1800000,-0.998382,-1.644817,8.607155,-0.950690,0.177959,1.178887
1804000,-0.804452,-1.728614,8.676587,-0.752217,1.384066,1.010948
1808000,-0.940921,-1.699883,8.616732,-0.416339,1.719944,0.705604
1812000,-0.984017,-1.838747,8.559271,-0.080461,1.689409,0.644536
1816000,-1.022324,-1.781286,8.497022,-0.126262,1.811547,0.812474
1820000,-1.079785,-1.759738,8.401254,-0.065194,1.506203,1.010948
1824000,-1.187524,-1.841141,8.573636,-0.416339,0.987119,0.934612
1828000,-1.223437,-1.841141,8.592790,0.102745,0.177959,1.438429
1832000,-1.156399,-1.848324,8.485051,0.423356,-0.585400,1.606368
1836000,-1.142034,-1.860295,8.391677,0.240150,-1.028148,1.789574
1840000,-1.067814,-1.862689,8.228871,-0.172064,-1.440362,2.217055
1844000,-0.979228,-1.776498,8.310274,-0.752217,-1.226621,2.018581
1848000,-0.969652,-1.855506,8.300697,-1.332370,-1.104484,1.972780
1852000,-1.017536,-1.867477,8.243237,-1.698782,-1.409827,1.789574
1856000,-1.053449,-1.889025,8.238448,-2.004125,-1.318224,1.926978
1860000,-1.168370,-1.891419,8.145074,-2.110996,-1.119751,2.140719
1864000,-1.242591,-1.886631,8.171411,-2.034660,-0.906011,2.659803
1868000,-1.189918,-1.996764,8.042124,-2.507942,-0.524331,2.949879
1872000,-1.127669,-1.958457,8.212111,-3.057560,0.071089,3.346826
1876000,-1.000776,-1.896208,8.312668,-3.591912,1.124524,3.087284
1880000,-1.101333,-1.936909,8.422802,-3.607178,2.391699,3.331558
1884000,-1.146823,-1.917756,8.394072,-3.973591,2.666508,3.484231
1888000,-1.230620,-1.987187,8.327033,-4.385805,3.628341,3.881177
1892000,-1.237802,-1.951274,8.310274,-4.660614,4.620707,4.568200
1896000,-1.199495,-1.874660,8.437167,-5.240767,5.078722,4.827742
1900000,-0.984017,-1.932121,8.473080,-5.240767,5.552005,5.010948
1904000,-0.840365,-1.960851,8.554482,-4.782751,5.796279,4.659803
1908000,-0.852336,-2.020706,8.415619,-3.576644,5.338264,4.384994
1912000,-0.952892,-1.994370,8.449138,-3.378171,4.849715,4.003314
1916000,-1.003170,-1.989582,8.470686,-2.965957,3.903150,3.759039
1920000,-1.060631,-1.951274,8.441956,-1.500308,2.452768,3.697971
1924000,-1.053449,-1.896208,8.451532,-1.118629,0.162692,3.484231
1928000,-1.149217,-1.939303,8.453926,-1.240766,-2.386927,3.102551
1932000,-1.067814,-1.829170,8.542512,-1.423972,-3.043415,3.163620
1936000,-1.005565,-1.776498,8.441956,-1.958324,-2.783873,3.194154
1940000,-0.960075,-1.764527,8.398860,-2.584278,-2.875476,3.499497
1944000,-1.007959,-1.776498,8.243237,-2.889621,-2.585400,3.514765
1948000,-1.012747,-1.771709,8.130709,-3.088094,-1.776240,3.820108
1952000,-0.823605,-1.740585,8.171411,-3.378171,-1.302957,4.094917
1956000,-0.885855,-1.781286,8.015787,-3.927789,-1.028148,3.804841
1960000,-0.864307,-1.723825,8.192958,-4.553743,-1.394560,3.957513
1964000,-0.821211,-1.687912,8.190564,-5.378171,-1.440362,3.652169
1968000,-0.663194,-1.613692,8.406042,-5.897255,-0.707537,3.117818
1972000,-0.713472,-1.702277,8.362947,-6.385805,-0.173186,3.041482
1976000,-0.754174,-1.647211,8.456321,-6.569011,-0.707537,2.720871
1980000,-0.742203,-1.719037,8.394072,-6.950690,-1.196087,2.552932
1984000,-0.735020,-1.778892,8.473080,-6.920156,-1.699904,2.079650
1988000,-0.694318,-1.833959,8.547300,-6.813286,-2.325858,1.636902
1992000,-0.603339,-1.805228,8.645462,-6.920156,-2.539598,1.331558
1996000,-0.588974,-1.867477,8.748413,-6.431606,-2.356392,0.980413
