time_us,ax,ay,az,gx,gy,gz
0,0.797269,-0.691924,8.609550,-0.645346,-2.677003,-1.859281
4000,0.794875,-0.675165,8.638280,-1.179698,-2.341125,-1.431800
8000,0.811634,-0.679953,8.786720,-1.622446,-1.394560,-1.355464
12000,0.847547,-0.691924,8.757990,-1.790385,-0.402194,-1.065388
16000,0.821211,-0.677559,8.748413,-1.668247,0.880249,-0.851648
20000,0.782904,-0.720655,8.748413,-1.591912,2.025287,-0.546304
24000,0.780510,-0.723049,8.707711,-1.439240,3.002386,-0.179892
28000,0.773327,-0.713472,8.839393,-1.362904,3.216127,0.049116
32000,0.739808,-0.663194,8.781932,-1.347636,3.613073,-0.042487
36000,0.797269,-0.689530,8.808268,-0.935423,3.475669,0.125452
40000,0.845153,-0.651223,8.753201,-0.736950,3.674142,0.125452
44000,0.969652,-0.620098,8.772355,-0.324736,4.055821,-0.332564
48000,1.015141,-0.648829,8.731653,0.148546,3.338264,-0.408900
52000,0.984017,-0.684742,8.626308,0.499691,2.223760,-1.172258
56000,0.885855,-0.648829,8.652645,0.530226,0.788646,-1.615006
60000,0.861913,-0.677559,8.621520,0.194348,-0.661736,-2.073022
64000,0.814029,-0.687136,8.621520,-0.248400,-1.333492,-2.256228
68000,0.713472,-0.802058,8.695741,-0.034660,-1.791507,-1.996686
72000,0.806846,-0.735020,8.669404,-0.217866,-2.661736,-2.347831
76000,0.830788,-0.758962,8.695741,-0.446873,-2.615934,-2.256228
80000,0.787692,-0.785298,8.659827,-0.538476,-2.615934,-2.164625
84000,0.758962,-0.816423,8.664616,-0.614812,-3.364026,-2.347831
88000,0.758962,-0.816423,8.880095,-1.011759,-3.928911,-2.302029
92000,0.773327,-0.782904,8.832211,-1.347636,-3.440362,-2.195159
96000,0.711078,-0.770933,8.836999,-1.103362,-3.089217,-1.889816
100000,0.634463,-0.782904,8.690952,-0.446873,-2.951812,-1.584472
104000,0.670376,-0.790087,8.774749,-0.324736,-2.463263,-1.508136
108000,0.725443,-0.735020,8.674192,-0.217866,-2.020514,-0.989052
112000,0.677559,-0.701501,8.710106,-0.202598,-1.913644,-0.821113
116000,0.713472,-0.665588,8.628703,-0.401072,-2.081583,-0.454701
120000,0.773327,-0.672771,8.757990,-0.431606,-1.867843,-0.363098
124000,0.835576,-0.665588,8.619126,-0.370538,-1.135018,-0.408900
128000,0.818817,-0.634463,8.518570,-0.950690,0.040554,-0.179892
132000,0.766145,-0.591368,8.461109,-1.027026,1.155058,-0.134090
136000,0.816423,-0.620098,8.324639,-1.622446,1.826814,0.232322
140000,0.816423,-0.507571,8.264784,-2.859087,1.811547,-0.134090
144000,0.921768,-0.596156,8.518570,-3.698782,2.315363,-0.210426
148000,0.900220,-0.612916,8.604761,-3.576644,1.674142,-0.179892
152000,0.900220,-0.696713,8.932767,-3.271301,0.941318,-0.561571
156000,0.962469,-0.691924,8.942344,-2.706415,0.116890,-0.805846
160000,0.883460,-0.742203,8.947132,-2.004125,-0.447995,-1.141724
164000,0.926556,-0.730232,9.153033,-1.439240,-0.768606,-1.538671
168000,0.881066,-0.823605,9.404425,-0.492675,-1.638835,-1.721877
172000,0.912191,-0.821211,9.390059,0.667630,-2.142652,-1.752411
176000,0.928950,-0.816423,9.490616,1.751600,-2.692270,-1.996686
180000,0.912191,-0.802058,9.342175,2.377554,-2.203721,-2.179892
184000,0.909797,-0.802058,9.339781,3.003508,-1.470896,-1.844014
188000,0.905008,-0.823605,9.186552,3.629463,-0.692270,-1.920350
192000,0.857124,-0.763750,9.023746,3.782134,0.208493,-1.828747
196000,0.837971,-0.732626,8.848969,3.339386,1.231394,-1.599739
200000,0.857124,-0.687136,8.801085,2.652363,2.086356,-1.431800
204000,0.916979,-0.701501,8.681376,1.995875,2.880249,-1.309663
208000,0.909797,-0.658405,8.497022,1.492058,3.277195,-1.294396
212000,0.873884,-0.572214,8.453926,0.438623,3.445134,-1.080655
216000,0.926556,-0.567426,8.626308,-0.355270,3.017654,-1.187526
220000,0.883460,-0.569820,8.511387,-1.317102,2.468035,-1.324930
224000,0.890643,-0.572214,8.525752,-1.317102,1.384066,-1.798213
228000,0.816423,-0.545878,8.669404,-1.485041,-0.341125,-2.256228
232000,0.739808,-0.663194,8.726865,-1.118629,-1.974713,-2.225693
236000,0.828394,-0.624887,8.686164,-0.889621,-2.478530,-2.240961
240000,0.770933,-0.636858,8.774749,-0.721682,-2.585400,-2.256228
244000,0.727837,-0.732626,8.535329,-0.721682,-3.409827,-2.164625
248000,0.699107,-0.770933,8.554482,-0.767484,-4.173186,-2.210426
252000,0.687136,-0.758962,8.583213,-1.225499,-4.814407,-1.828747
256000,0.802058,-0.689530,8.676587,-1.256034,-4.844942,-1.721877
260000,0.900220,-0.780510,8.762778,-0.889621,-4.417461,-2.027220
264000,0.993594,-0.763750,8.947132,-0.599545,-3.547232,-2.317297
268000,0.986411,-0.751779,8.947132,-0.110996,-2.509064,-2.531037
272000,0.849942,-0.823605,8.944737,0.072211,-1.760972,-2.790579
276000,0.837971,-0.761356,8.980651,0.530226,-1.379293,-2.775312
280000,0.864307,-0.766145,9.018958,0.835569,-1.104484,-2.653174
284000,0.797269,-0.864307,8.985439,1.018775,-0.417461,-2.271495
288000,0.749385,-0.785298,9.078813,1.598928,-0.234255,-1.828747
292000,0.735020,-0.775721,8.712500,1.858470,0.223760,-1.477602
296000,0.916979,-0.770933,8.760384,1.889004,0.834447,-1.187526
300000,1.005565,-0.754174,8.717288,1.385188,1.613073,-1.324930
304000,1.060631,-0.727837,8.681376,1.079844,2.712310,-1.202793
308000,1.096544,-0.694318,8.549694,0.667630,3.536737,-1.401266
312000,1.060631,-0.730232,8.444349,0.301218,3.826814,-1.706609
316000,1.053449,-0.653617,8.422802,-0.049927,4.239028,-1.844014
320000,1.058237,-0.677559,8.267179,-0.385804,4.437501,-2.240961
324000,1.024718,-0.675165,8.355764,-0.996492,3.719944,-2.225693
328000,1.024718,-0.639252,8.451532,-1.454507,2.391699,-2.561571
332000,1.007959,-0.694318,8.389283,-1.775118,1.017653,-2.821113
336000,1.010353,-0.639252,8.525752,-1.561377,-0.967079,-3.019587
340000,0.976834,-0.636858,8.564059,-1.683514,-2.509064,-3.202793
344000,1.146823,-0.687136,8.772355,-1.668247,-2.890743,-3.172258
348000,1.204283,-0.682347,8.719683,-1.378171,-2.707537,-3.599739
352000,1.177947,-0.665588,8.801085,-0.981224,-3.379293,-3.782945
356000,1.235408,-0.615310,8.777143,-0.630080,-3.043415,-3.996686
360000,1.247379,-0.646434,8.872911,0.133279,-2.524331,-4.317297
364000,1.122881,-0.691924,8.786720,0.469157,-1.852576,-4.592105
368000,1.307234,-0.706290,8.619126,0.957707,-1.715171,-4.882182
372000,1.347936,-0.624887,8.549694,0.789768,-1.196087,-5.095922
376000,1.393425,-0.682347,8.482656,0.362287,-0.768606,-5.279129
380000,1.482011,-0.660800,8.525752,-0.248400,0.010020,-5.752411
384000,1.434127,-0.696713,8.566454,-0.767484,0.101623,-6.149357
388000,1.489193,-0.672771,8.544906,-1.179698,-0.585400,-6.546304
392000,1.505953,-0.737414,8.678981,-1.668247,-1.058682,-6.851647
396000,1.482011,-0.713472,8.657434,-2.172064,-1.150285,-6.958518
400000,1.510741,-0.730232,8.724471,-2.477408,-0.844942,-7.126457
404000,1.529895,-0.775721,8.817844,-2.553744,-0.447995,-7.279129
408000,1.575385,-0.849942,8.920795,-2.920156,0.116890,-7.492869
412000,1.608904,-0.809240,8.973468,-2.553744,1.322997,-7.340197
416000,1.625663,-0.787692,8.937555,-2.431606,2.315363,-7.416533
420000,1.762132,-0.780510,8.956709,-1.805652,3.552005,-7.508136
424000,1.805228,-0.746991,8.920795,-1.622446,5.048188,-8.011953
428000,1.927332,-0.723049,9.131485,-1.408705,5.384066,-8.286762
432000,1.891419,-0.749385,9.251195,-0.553744,6.437501,-9.050121
436000,1.924938,-0.718261,8.935161,0.224882,7.216127,-9.156992
440000,1.869871,-0.725443,8.762778,0.866104,6.834447,-9.844014
444000,1.867477,-0.732626,8.645462,0.881371,5.781013,-10.256228
448000,1.896208,-0.708684,8.705317,0.637096,4.574905,-10.653174
452000,2.044648,-0.687136,8.690952,0.850837,3.277195,-11.279129
456000,2.087744,-0.639252,8.523358,0.927172,2.208493,-12.332564
460000,2.145205,-0.624887,8.451532,0.881371,0.742844,-12.989053
464000,2.262521,-0.648829,8.410830,0.866104,0.193226,-13.920350
468000,2.466028,-0.565032,8.437167,0.423356,0.544371,-14.805846
472000,2.590526,-0.584185,8.532935,0.316485,1.109257,-16.378365
476000,2.542642,-0.608127,8.504205,0.514959,1.200860,-17.950884
480000,2.499547,-0.565032,8.468291,0.759233,0.880249,-19.202791
484000,2.401384,-0.584185,8.482656,0.866104,-0.096850,-20.195158
488000,2.365471,-0.598550,8.389283,1.186714,-0.234255,-20.866915
492000,2.439692,-0.497994,8.195353,0.377554,-0.142652,-21.187525
496000,2.523489,-0.519542,8.341399,-0.904888,-1.715171,-22.149357
500000,2.437297,-0.639252,8.374918,-1.378171,-1.638835,-22.607372
504000,2.480393,-0.620098,8.322245,-2.202598,-3.012881,-22.897449
508000,2.545036,-0.656011,8.346188,-3.301835,-4.493797,-23.370731
512000,2.698265,-0.629675,8.638280,-4.126263,-3.364026,-23.248594
516000,2.964022,-0.670376,8.839393,-4.798018,-1.638835,-23.905083
520000,3.177106,-0.663194,8.959103,-4.996491,0.254295,-24.698975
524000,3.347094,-0.689530,8.971074,-4.920156,2.361165,-25.599739
528000,3.490746,-0.754174,9.267955,-4.630079,4.315363,-27.156990
532000,3.581726,-0.713472,9.320627,-3.790385,6.055821,-28.775311
536000,3.677494,-0.782904,9.361329,-2.981224,7.384066,-30.744778
540000,3.675100,-0.778116,9.397242,-1.897255,8.315363,-32.332565
544000,3.785233,-0.766145,9.466674,-0.553744,9.552004,-34.286762
548000,3.892972,-0.790087,9.478644,0.698165,11.338264,-36.683708
552000,3.952827,-0.775721,9.409213,2.179081,11.872615,-38.821114
556000,3.892972,-0.787692,9.217676,3.369921,11.017653,-41.615005
560000,3.835511,-0.809240,9.136273,4.240149,10.254294,-44.118824
564000,3.598485,-0.833182,8.999804,5.003509,8.849714,-45.798210
568000,3.428497,-0.907402,8.848969,5.415722,6.742845,-47.553936
572000,3.373430,-0.919373,8.767567,5.598928,5.200860,-48.989052
576000,3.270479,-0.837971,8.516175,5.889005,4.422234,-49.920349
580000,3.222595,-0.821211,8.370130,5.980608,4.193226,-50.851646
584000,3.117251,-0.814029,8.202535,5.522593,2.956585,-51.691341
588000,3.117251,-0.881066,8.099585,4.759233,2.666508,-52.637905
592000,3.069367,-0.804452,8.113950,3.675264,2.727577,-53.355465
596000,3.086126,-0.845153,8.085219,1.461524,2.910783,-54.164623
600000,2.971204,-0.857124,8.216900,0.316485,3.292463,-54.607372
604000,2.999935,-0.931344,8.259995,-0.401072,2.864982,-55.034855
608000,3.083732,-0.871489,8.370130,-1.378171,3.231394,-55.233326
612000,3.114856,-0.945710,8.561666,-1.729316,4.177959,-55.966152
616000,3.131616,-0.926556,8.667010,-2.156797,5.887883,-56.363098
620000,3.069367,-1.072602,8.549694,-2.691148,6.788646,-56.775311
624000,3.210624,-1.019930,8.571242,-2.874354,7.872615,-57.462334
628000,3.059790,-1.019930,8.631097,-3.362904,8.712310,-57.798210
632000,3.071761,-1.101333,8.717288,-4.034659,8.788646,-58.378365
636000,3.191471,-1.125275,8.825027,-3.958324,9.216126,-58.668442
640000,3.270479,-1.122881,8.736442,-3.607178,10.132157,-59.462334
644000,3.239355,-1.177947,8.667010,-2.965957,10.208493,-59.966152
648000,3.545813,-1.134852,8.877700,-2.187331,9.414599,-61.615005
652000,3.833117,-1.125275,9.016563,-1.423972,9.536737,-63.966152
656000,4.062960,-1.082179,9.066842,-0.569010,9.689409,-66.469971
660000,3.986346,-1.165976,9.121908,0.484424,9.460402,-69.492867
664000,3.849876,-1.201889,9.054871,1.644730,8.345898,-72.240959
668000,3.737349,-1.309628,8.971074,2.774501,7.109257,-74.622643
672000,3.311181,-1.362301,8.846576,3.476791,5.918417,-76.515770
676000,3.074155,-1.381454,8.595184,3.339386,3.918417,-77.462334
680000,2.743755,-1.412579,8.602366,3.095111,1.689409,-77.798210
684000,2.542642,-1.474828,8.437167,2.835569,-0.096850,-77.706612
688000,2.422932,-1.455675,8.298303,2.453890,-2.295324,-77.263863
692000,2.545036,-1.453280,8.240842,1.827936,-3.135018,-76.698975
696000,2.669535,-1.323994,8.250419,0.331753,-2.157919,-76.653175
700000,2.834735,-1.271321,8.552089,-1.057560,-0.371659,-76.622643
704000,2.975993,-1.244985,8.530540,-1.530843,2.284829,-76.729507
708000,3.169923,-1.264138,8.602366,-2.049927,5.307730,-77.187523
712000,3.342306,-1.235408,8.647857,-2.843820,9.048187,-78.103554
716000,3.258508,-1.276109,8.750807,-3.332370,12.437500,-79.019585
720000,3.141193,-1.314417,8.662222,-4.110995,15.781012,-79.645538
724000,3.215413,-1.393425,8.597578,-4.340003,18.895515,-80.515770
728000,3.045424,-1.410185,8.497022,-5.500309,20.819180,-80.973785
732000,2.885013,-1.417367,8.377312,-5.820919,20.330629,-81.859283
736000,2.880225,-1.467646,8.418014,-6.416339,19.567272,-82.851646
740000,2.837129,-1.517924,8.578424,-6.950690,18.681776,-84.073021
744000,2.990358,-1.594538,8.710106,-7.042294,17.078722,-85.279129
748000,2.932897,-1.616086,8.707711,-6.599545,14.498569,-87.187523
752000,2.916138,-1.719037,8.836999,-6.446874,11.506203,-88.775314
756000,2.985569,-1.695095,8.947132,-5.836186,9.658875,-90.515770
760000,2.746149,-1.821988,9.121908,-5.301835,6.773379,-92.302032
764000,2.700660,-1.905785,9.253590,-4.599545,4.193226,-93.874550
768000,2.609680,-1.915361,9.332599,-3.805652,2.742844,-95.859283
772000,2.571373,-1.987187,9.394848,-3.362904,3.109257,-95.737144
776000,2.367866,-2.032677,9.323022,-2.080461,2.895516,-96.485237
780000,2.336741,-2.157176,9.385271,-0.492675,3.246661,-96.668442
784000,2.451663,-2.090138,9.454702,0.270684,3.445134,-96.866913
788000,2.408567,-2.142811,9.423578,1.049310,4.391699,-96.958519
792000,2.437297,-2.130840,9.332599,1.263050,6.223761,-96.790581
796000,2.377442,-2.133234,9.320627,1.476791,7.399333,-97.401268
800000,2.466028,-2.133234,9.373300,1.980608,9.658875,-98.500504
804000,2.430115,-2.123657,9.133880,1.721066,11.887882,-97.645538
808000,2.346318,-2.116474,9.045294,1.965340,13.200859,-99.416534
812000,2.298434,-2.104503,8.918402,1.950073,13.781012,-99.126457
816000,2.296039,-2.118869,8.973468,2.026409,14.300096,-99.492867
820000,2.480393,-2.130840,8.851364,1.446256,15.719944,-100.653175
824000,2.506729,-2.166753,8.918402,0.774501,17.093988,-101.492867
828000,2.545036,-2.135628,8.954314,0.285951,18.483301,-102.805847
832000,2.588132,-2.090138,8.743625,0.041676,20.116890,-104.622643
836000,2.468422,-2.099715,8.453926,-0.233133,20.880249,-106.073021
840000,2.504335,-2.166753,8.370130,-1.378171,21.216125,-107.523399
844000,2.315193,-2.207454,8.274361,-2.981224,21.536737,-109.065384
848000,2.291251,-2.197877,8.434772,-4.355270,21.109257,-110.989052
852000,2.276886,-2.176329,8.355764,-4.981225,20.269562,-112.775314
856000,2.207454,-2.118869,8.334216,-5.881988,18.010019,-114.760040
860000,2.159570,-2.126051,8.508993,-6.034659,15.429867,-116.897446
864000,2.044648,-2.202666,8.695741,-6.706415,14.315363,-118.439430
868000,1.960851,-2.202666,8.810662,-7.530843,13.887882,-120.149361
872000,1.752556,-2.255338,9.004593,-8.278934,14.483302,-121.615005
876000,1.496376,-2.319981,9.255983,-8.553743,14.956584,-122.607368
880000,1.039083,-2.475605,9.414001,-8.095729,16.727577,-122.790581
884000,0.519542,-2.564190,9.373300,-7.271301,16.941317,-122.073021
888000,0.351948,-2.557007,9.339781,-7.790385,18.132156,-120.927986
892000,0.237026,-2.777274,9.493010,-7.698782,21.811546,-119.065384
896000,0.114922,-2.767697,9.555259,-7.011759,25.750477,-116.515770
900000,0.258574,-2.755726,9.725247,-5.958323,28.513836,-114.973785
904000,0.603339,-2.719813,9.849746,-4.813286,33.078720,-113.691345
908000,0.852336,-2.722207,9.768343,-3.133896,37.811546,-113.294395
912000,0.933739,-2.777274,9.545682,-1.179698,41.109257,-113.187523
916000,0.993594,-2.810793,9.375694,1.446256,43.017654,-113.828743
920000,0.821211,-2.829947,9.373300,2.545493,41.643608,-114.225693
924000,0.766145,-2.817975,9.346964,3.736333,39.292461,-114.683708
928000,0.739808,-2.810793,8.894460,4.224883,36.956585,-114.897446
932000,0.648829,-2.834735,8.722076,4.240149,32.239029,-115.844017
936000,0.675165,-2.885013,8.825027,5.140913,28.040554,-116.347832
940000,0.787692,-2.853889,8.822633,6.255417,25.093988,-117.172256
944000,0.852336,-2.856283,8.671799,6.789768,21.918417,-117.767677
948000,0.921768,-2.880225,8.640674,6.881371,21.093988,-118.546303
952000,0.909797,-2.906561,8.607155,7.339386,20.819180,-119.156990
956000,0.972046,-2.925714,8.564059,7.186714,21.384066,-119.645538
960000,1.125275,-2.980781,8.561666,7.293585,23.002386,-120.943253
964000,1.182736,-3.136404,8.307879,6.957707,25.735210,-122.302032
968000,0.969652,-3.169923,8.128315,6.331753,28.620707,-123.187523
972000,0.639252,-3.232172,7.910442,5.369921,31.292461,-123.798210
976000,0.445322,-3.239355,7.668628,4.240149,32.651241,-124.057755
980000,0.033519,-3.292027,7.410054,3.018775,33.414600,-124.225693
984000,-0.088585,-3.272874,7.331046,1.308852,32.895515,-124.347832
988000,-0.359130,-3.354277,7.125144,-0.477408,32.010021,-123.798210
992000,-0.677559,-3.375824,6.914454,-2.156797,30.513836,-123.095924
996000,-0.711078,-3.260903,6.859388,-4.706415,29.155058,-121.935616
1000000,-0.615310,-3.177106,7.007828,-7.225499,28.422234,-120.790581
1004000,-0.390255,-3.148375,7.074866,-10.004126,28.574905,-120.286758
1008000,-0.277727,-3.167529,7.395689,-11.408706,27.994753,-119.737144
1012000,0.083797,-3.086126,7.678205,-10.889622,29.277195,-120.256226
1016000,0.189142,-3.148375,7.951144,-10.523210,30.910784,-120.790581
1020000,0.476446,-2.997540,7.733272,-11.072827,37.994751,-122.118820
1024000,0.076614,-2.942474,7.153875,-14.187331,42.590172,-123.981415
1028000,-0.282516,-3.071761,7.259220,-16.401072,45.231392,-124.805847
1032000,-0.445322,-3.062184,7.572860,-17.652979,44.635975,-124.958519
1036000,-0.550666,-3.098097,7.795521,-18.004124,43.857349,-125.752411
1040000,-0.720655,-3.138798,7.977480,-17.714048,43.964218,-125.660805
1044000,-1.005565,-3.244143,7.958326,-16.660612,42.803913,-125.095924
1048000,-1.295263,-3.287239,8.039729,-15.240767,39.155056,-124.424164
1052000,-1.376666,-3.184288,7.963115,-13.897256,37.506203,-123.447067
1056000,-1.431733,-3.208230,7.987057,-12.996491,35.750477,-122.118820
1060000,-1.510741,-3.184288,8.097190,-11.652981,33.338264,-120.851646
1064000,-1.446098,-3.035848,7.982268,-10.889622,30.574905,-119.859283
1068000,-1.455675,-2.987964,7.999028,-10.599545,28.681776,-119.141724
1072000,-1.424550,-2.999935,7.960721,-9.912522,27.765745,-118.042488
1076000,-1.414973,-3.026271,7.867347,-9.500309,26.758112,-116.851646
1080000,-1.379060,-2.944868,7.750031,-9.805653,26.544371,-115.263863
1084000,-1.367089,-2.925714,7.738060,-10.294202,26.513836,-114.210426
1088000,-1.335965,-2.846706,7.596802,-11.439240,26.345898,-112.989052
1092000,-1.273715,-2.782062,7.714118,-12.721683,26.452768,-112.042488
1096000,-1.063026,-2.832341,7.829040,-12.859088,27.322996,-111.340195
1100000,-0.830788,-2.839523,7.953538,-12.965957,28.208492,-111.401268
1104000,-0.677559,-2.870648,8.104373,-12.538476,28.345898,-112.149361
1108000,-0.833182,-2.820370,8.030152,-11.194965,28.040554,-112.485237
1112000,-1.043872,-2.849100,8.061277,-10.034659,25.872616,-112.912712
1116000,-1.189918,-2.956839,8.025364,-8.996491,23.918417,-113.172256
1120000,-1.438915,-3.043030,8.056489,-8.019393,22.513836,-112.989052
1124000,-1.790863,-3.112462,7.781156,-7.194965,19.979485,-112.363098
1128000,-2.015918,-3.193865,7.625533,-6.721683,17.063456,-111.233330
1132000,-2.068590,-3.224990,7.544129,-6.950690,14.498569,-109.737144
1136000,-2.200271,-3.251326,7.563283,-7.408706,12.697042,-108.103554
1140000,-2.169147,-3.232172,7.568071,-7.820919,12.300096,-106.256226
1144000,-2.169147,-3.181894,7.529764,-9.362904,11.994752,-104.546303
1148000,-2.123657,-3.201048,7.568071,-10.614813,14.055821,-102.790581
1152000,-2.068590,-3.174711,7.426814,-12.217866,17.185593,-101.019585
1156000,-2.051831,-3.136404,7.481880,-14.523210,19.674141,-99.355461
1160000,-1.936909,-3.052607,7.467515,-16.446873,22.864981,-97.981415
1164000,-1.884237,-3.052607,7.455544,-18.233131,26.452768,-96.775314
1168000,-1.970428,-3.050213,7.422025,-19.652979,28.300097,-95.859283
1172000,-2.073379,-3.019088,7.436390,-21.027025,29.674141,-94.363098
1176000,-2.229002,-3.071761,7.460332,-21.866720,30.132156,-93.156990
1180000,-2.444480,-3.023877,7.481880,-22.904888,30.040554,-92.607368
1184000,-2.626439,-2.980781,7.517793,-23.072826,28.422234,-91.126457
1188000,-2.894590,-2.975993,7.728483,-22.614811,25.964218,-89.477600
1192000,-2.968810,-2.868254,7.826645,-22.401072,22.391699,-87.966148
1196000,-3.081338,-2.755726,7.922413,-22.462139,19.200859,-86.225693
1200000,-3.169923,-2.794033,7.994239,-21.744583,17.353531,-84.210426
1204000,-3.076549,-2.762909,8.243237,-21.347635,15.139791,-82.134087
1208000,-3.031059,-2.755726,8.590396,-20.874353,14.055821,-80.118820
1212000,-2.791639,-2.734178,8.743625,-19.698780,14.406966,-78.775314
1216000,-2.736573,-2.748544,8.911219,-18.950689,15.765745,-77.248596
1220000,-2.844312,-2.760514,9.093178,-17.637712,16.788645,-75.905083
1224000,-2.841918,-2.765303,9.057265,-15.805652,17.918417,-74.592102
1228000,-3.021482,-2.803610,9.054871,-13.439240,19.399332,-72.836380
1232000,-3.311181,-2.889802,9.112331,-11.622446,18.193226,-70.821114
1236000,-3.634398,-2.971204,9.323022,-9.943057,15.781012,-68.286758
1240000,-3.713407,-3.071761,9.215282,-7.927790,15.597805,-65.996689
1244000,-3.775656,-2.978387,9.215282,-5.866721,14.361164,-62.805847
1248000,-3.687071,-2.913743,9.212888,-3.943056,11.536737,-60.485233
1252000,-3.541024,-2.863465,9.349358,-2.446873,9.765745,-58.240959
1256000,-3.409343,-2.815581,9.332599,-1.225499,8.529103,-56.302029
1260000,-3.399766,-2.750938,9.138668,0.026409,7.704676,-54.454700
1264000,-3.433285,-2.731784,8.980651,0.957707,6.849715,-52.958519
1268000,-3.318364,-2.774880,8.683769,1.293585,5.872615,-51.050121
1272000,-3.198653,-2.674323,8.623915,1.659997,6.162692,-49.126457
1276000,-3.210624,-2.643199,8.671799,2.179081,5.979486,-47.385998
1280000,-3.129222,-2.561796,8.736442,2.591295,5.857348,-45.676075
1284000,-3.141193,-2.497152,8.714894,2.759233,4.635974,-44.073021
1288000,-2.995146,-2.413355,8.731653,3.217249,3.689409,-42.424168
1292000,-3.131616,-2.296039,8.805874,3.385188,3.552005,-40.866913
1296000,-3.114856,-2.286463,8.995016,3.690531,1.964218,-38.989052
1300000,-2.985569,-2.157176,8.930372,5.385188,1.429867,-37.126457
1304000,-2.832341,-2.039860,8.844181,5.934806,0.223760,-35.416534
1308000,-2.044648,-1.800440,8.738836,4.255417,0.666508,-34.668442
1312000,-0.998382,-1.649605,8.683769,4.789768,3.765745,-36.210426
1316000,-1.101333,-1.587356,8.355764,3.217249,5.536737,-38.073021
1320000,-2.051831,-1.707066,8.360553,-1.500308,6.849715,-38.790577
1324000,-2.674323,-1.886631,8.686164,-4.446874,14.513836,-36.866913
1328000,-2.537854,-1.929727,8.573636,-3.897255,19.567272,-34.164623
1332000,-2.650381,-1.929727,8.257602,-2.233133,18.941317,-31.859282
1336000,-2.588132,-2.015918,8.236053,-1.591912,15.597805,-30.943251
1340000,-2.413355,-1.968034,8.741230,-2.385804,13.490935,-30.515770
1344000,-2.104503,-2.056619,9.208099,-1.652980,12.513836,-30.760044
1348000,-2.106898,-2.133234,9.399636,-0.278934,9.384066,-30.592106
1352000,-2.181118,-2.161964,9.205706,1.919539,7.353531,-30.851646
1356000,-2.432509,-2.238579,9.069236,3.690531,5.903150,-31.004318
1360000,-2.487576,-2.308010,8.992621,5.003509,4.498569,-30.760044
1364000,-2.633622,-2.391808,8.765172,6.331753,3.674142,-30.317295
1368000,-2.782062,-2.477999,8.688558,7.797401,2.071089,-29.737143
1372000,-3.066972,-2.475605,8.667010,8.805036,0.376432,-28.317295
1376000,-3.258508,-2.545036,8.262390,9.644730,-0.173186,-26.653173
1380000,-3.428497,-2.631228,8.116343,9.293585,0.681776,-24.408899
1384000,-3.433285,-2.633622,7.843405,8.942440,2.468035,-21.813478
1388000,-3.421314,-2.628834,7.603985,8.163814,4.513837,-19.218060
1392000,-3.351882,-2.540248,7.199365,6.316485,3.506203,-17.111189
1396000,-3.196259,-2.451663,7.256825,2.392821,1.842081,-15.355465
1400000,-3.160346,-2.473210,7.438785,-0.095728,2.254295,-13.279129
1404000,-3.023877,-2.430115,7.431602,-2.370538,1.826814,-11.569205
1408000,-2.870648,-2.449268,7.541735,-3.698782,2.559638,-9.660809
1412000,-2.858677,-2.408567,7.666234,-4.309469,4.803913,-8.011953
1416000,-2.844312,-2.329558,7.903260,-4.935423,5.552005,-6.500503
1420000,-2.882619,-2.324770,7.879318,-5.485042,6.727577,-4.836380
1424000,-2.975993,-2.219425,8.049306,-5.943057,6.712310,-3.248594
1428000,-2.920926,-2.226608,8.245630,-6.233133,6.803913,-1.248594
1432000,-2.782062,-2.154782,8.360553,-6.309469,7.811547,0.736139
1436000,-2.535460,-2.114080,8.497022,-5.744583,9.750478,2.094917
1440000,-2.310405,-2.006341,8.504205,-5.088095,12.071088,3.407894
1444000,-2.080561,-1.877054,8.566454,-4.202599,14.025287,4.232322
1448000,-1.733402,-1.726219,8.559271,-2.996492,15.414599,4.033849
1452000,-1.659182,-1.678335,8.494628,-2.019392,14.635974,3.881177
1456000,-1.668759,-1.656788,8.434772,-0.981224,12.666508,2.995681
1460000,-1.582567,-1.704672,8.439561,0.514959,10.391699,2.476597
1464000,-1.556231,-1.611298,8.319851,1.492058,7.842081,1.988047
1468000,-1.513135,-1.690306,8.202535,2.316485,5.460402,1.316291
1472000,-1.544260,-1.774103,8.154651,3.186715,2.926050,1.163620
1476000,-1.592144,-1.740585,8.149862,3.598928,0.635974,0.705604
1480000,-1.556231,-1.783680,8.056489,3.614195,-1.547232,0.552933
1484000,-1.498770,-1.707066,8.044518,3.247783,-2.768606,0.507131
1488000,-1.508347,-1.798046,7.984663,2.942440,-2.967079,0.980413
1492000,-1.482011,-1.800440,7.910442,2.133279,-2.585400,1.224688
1496000,-1.438915,-1.838747,7.862558,1.232516,-1.623568,2.155986
1500000,-1.505953,-1.778892,7.769185,-0.126262,-0.249522,2.888810
1504000,-1.302446,-1.640028,7.752425,-1.973591,0.971852,3.606368
1508000,-1.106121,-1.601721,7.809886,-3.683514,1.964218,4.323925
1512000,-1.055843,-1.553837,8.070854,-4.752217,3.414600,4.888811
1516000,-0.883460,-1.568202,8.145074,-5.805653,4.956585,5.117818
1520000,-0.713472,-1.577779,8.195353,-6.950690,5.292463,4.888811
1524000,-0.735020,-1.577779,8.406042,-7.607179,5.750478,4.751406
1528000,-0.763750,-1.604115,8.542512,-7.378171,5.063455,4.461329
1532000,-0.969652,-1.659182,8.506598,-6.507942,3.063455,4.522398
1536000,-0.919373,-1.642422,8.614338,-6.569011,1.475669,4.629269
1540000,-0.804452,-1.738190,8.729259,-6.538477,1.231394,4.659803
1544000,-0.634463,-1.709460,8.779537,-5.729317,1.322997,4.568200
1548000,-0.536301,-1.723825,8.717288,-4.614813,1.048188,4.217055
1552000,-0.435745,-1.723825,8.726865,-3.714049,0.177959,3.652169
1556000,-0.454898,-1.786075,8.743625,-2.782751,0.116890,3.392627
1560000,-0.505177,-1.912967,8.638280,-2.034660,0.025287,2.949879
1564000,-0.541090,-1.908179,8.492233,-1.637713,0.025287,2.629268
1568000,-0.486023,-1.956063,8.391677,-1.729316,0.254295,2.675070
1572000,-0.380678,-1.812411,8.401254,-1.805652,0.651241,2.675070
1576000,-0.361524,-1.915361,8.499416,-2.446873,0.727577,2.278123
1580000,-0.292093,-1.824382,8.456321,-3.088094,0.727577,2.018581
1584000,-0.296881,-1.853112,8.511387,-3.714049,0.651241,1.804841
1588000,-0.368707,-1.795651,8.559271,-4.569011,0.620707,1.804841
1592000,-0.471658,-1.819593,8.556877,-5.149163,0.819180,1.896444
1596000,-0.483629,-1.869871,8.686164,-5.225499,0.758111,2.415528
1600000,-0.567426,-1.853112,8.602366,-5.469774,0.742844,2.873543
1604000,-0.536301,-1.905785,8.525752,-5.805653,0.559638,3.285757
1608000,-0.481235,-1.776498,8.657434,-6.294202,0.742844,3.484231
1612000,-0.284910,-1.783680,8.690952,-6.263667,0.498570,3.438429
1616000,-0.191536,-1.728614,8.755595,-6.004126,-0.020514,2.797207
1620000,-0.186748,-1.733402,8.635885,-5.744583,-0.203721,2.629268
1624000,-0.169988,-1.750161,8.667010,-5.637713,-1.135018,1.850642
1628000,-0.160412,-1.759738,8.726865,-5.317102,-2.051049,1.591100
1632000,-0.196325,-1.661576,8.690952,-4.752217,-3.562499,1.010948
1636000,-0.062249,-1.683124,8.657434,-4.538477,-4.417461,0.064383
1640000,0.014365,-1.642422,8.767567,-3.988858,-4.585400,-0.408900
1644000,-0.105345,-1.618480,8.743625,-3.057560,-4.722805,-1.065388
1648000,-0.095768,-1.678335,8.626308,-2.370538,-5.226621,-1.355464
1652000,-0.268151,-1.747767,8.439561,-1.927789,-4.860209,-1.660808
1656000,-0.430956,-1.750161,8.372523,-2.126262,-5.318224,-1.859281
1660000,-0.481235,-1.774103,8.377312,-2.752217,-6.203721,-1.584472
1664000,-0.682347,-1.747767,8.508993,-3.027026,-6.325858,-1.645541
1668000,-0.641646,-1.692701,8.662222,-2.736950,-6.096850,-0.805846
1672000,-0.383072,-1.745373,8.650250,-2.141530,-4.844942,0.033849
1676000,-0.122104,-1.778892,8.669404,-2.309469,-1.516698,0.262856
1680000,-0.055067,-1.704672,8.626308,-3.317102,2.040554,0.293391
1684000,0.038307,-1.666364,8.640674,-4.019392,4.437501,0.018581
1688000,0.035913,-1.692701,8.623915,-4.492675,5.231394,-0.393632
1692000,-0.023942,-1.714248,8.655039,-4.691149,4.773379,-1.141724
1696000,-0.165200,-1.721431,8.662222,-4.477407,4.086356,-1.645541
1700000,-0.258574,-1.709460,8.791509,-4.080462,3.765745,-2.042487
1704000,-0.450110,-1.728614,8.772355,-3.836186,3.887883,-2.179892
1708000,-0.577003,-1.800440,8.633492,-2.965957,3.429867,-2.240961
1712000,-0.641646,-1.920150,8.334216,-2.385804,2.345898,-2.027220
1716000,-0.627281,-1.920150,8.298303,-2.660614,1.765745,-2.057755
1720000,-0.363919,-1.939303,8.291121,-2.614812,0.147424,-2.347831
1724000,-0.196325,-1.968034,8.473080,-2.706415,-2.142652,-3.141724
1728000,-0.191536,-1.996764,8.542512,-2.110996,-3.394560,-4.134090
1732000,-0.409408,-2.102109,8.702923,-1.149163,-4.447995,-4.653174
1736000,-0.560243,-2.135628,8.611943,-0.355270,-4.753339,-5.095922
1740000,-0.732626,-2.159570,8.657434,0.316485,-3.959446,-4.744777
1744000,-0.888249,-2.217031,8.614338,0.408088,-3.150285,-4.424167
1748000,-1.053449,-2.284068,8.501810,0.560760,-2.509064,-3.462335
1752000,-0.998382,-2.300828,8.396465,0.087478,-1.730438,-2.088289
1756000,-0.873884,-2.224213,8.350976,-0.874354,-0.600667,-1.202793
1760000,-0.744597,-2.185906,8.300697,-2.110996,0.880249,-0.500503
1764000,-0.591368,-2.161964,8.185776,-2.874354,1.964218,0.018581
1768000,-0.507571,-2.114080,8.389283,-3.408705,2.697043,-0.073022
1772000,-0.505177,-2.133234,8.410830,-4.095729,3.475669,-0.073022
1776000,-0.641646,-2.133234,8.403648,-4.492675,3.597806,-0.332564
1780000,-0.797269,-2.070984,8.391677,-4.401072,3.307730,-0.164625
1784000,-0.991199,-2.035071,8.255207,-4.965958,2.376432,0.659803
1788000,-0.797269,-1.953669,8.214506,-5.301835,1.750478,0.980413
1792000,-0.670376,-1.953669,8.329428,-5.454507,1.552005,1.209421
1796000,-0.545878,-1.886631,8.307879,-5.637713,1.384066,1.255223
1800000,-0.344765,-1.956063,8.377312,-6.217866,0.819180,0.629268
1804000,-0.524330,-1.960851,8.372523,-6.431606,0.956585,0.003314
1808000,-0.629675,-1.987187,8.432379,-6.538477,0.193226,-0.164625
1812000,-0.653617,-2.116474,8.542512,-6.553743,-1.028148,-0.057755
1816000,-0.639252,-2.164358,8.925584,-5.958323,-1.348759,0.323925
1820000,-0.648829,-2.202666,8.925584,-5.286569,-0.829675,0.262856
1824000,-0.727837,-2.240973,9.059659,-4.523210,-0.188453,0.766673
1828000,-0.730232,-2.252944,8.944737,-4.004126,0.040554,0.949879
1832000,-0.675165,-2.288857,8.925584,-3.515576,-0.386927,1.163620
1836000,-0.713472,-2.310405,9.133880,-2.813286,-0.631201,1.209421
1840000,-0.675165,-2.207454,9.203311,-1.500308,-1.577766,1.453696
1844000,-0.665588,-2.121263,9.057265,-0.446873,-2.142652,1.560566
1848000,-0.596156,-2.178724,9.047688,0.163814,-1.593034,1.789574
1852000,-0.529119,-2.066196,8.930372,0.835569,-0.371659,1.911711
1856000,-0.512359,-1.982399,8.880095,0.850837,0.620707,2.018581
1860000,-0.521936,-2.001553,8.712500,0.484424,1.155058,1.926978
1864000,-0.610521,-1.951274,8.688558,-0.004125,0.788646,1.621635
1868000,-0.730232,-1.956063,8.540117,-0.507942,0.391699,1.774307
1872000,-0.804452,-1.977611,8.508993,-0.752217,0.254295,2.003314
1876000,-0.797269,-1.944092,8.343793,-1.057560,0.330631,2.476597
1880000,-0.730232,-1.970428,8.362947,-1.408705,-0.005247,2.751406
1884000,-0.723049,-1.948880,8.319851,-1.546110,0.101623,3.163620
1888000,-0.641646,-1.867477,8.264784,-2.416339,0.406966,3.468963
1892000,-0.438139,-1.881842,8.159439,-3.317102,1.216127,3.255223
1896000,-0.404620,-1.855506,8.135497,-4.080462,0.926050,2.598734
1900000,-0.356736,-1.869871,8.355764,-4.630079,-0.768606,2.415528
1904000,-0.466869,-1.929727,8.449138,-4.370538,-1.989980,1.865910
1908000,-0.562637,-1.910573,8.540117,-4.172065,-2.509064,2.018581
1912000,-0.488417,-1.953669,8.626308,-4.233133,-3.073950,1.804841
1916000,-0.524330,-1.980005,8.722076,-3.973591,-2.539598,2.201787
1920000,-0.435745,-1.958457,8.892065,-3.775118,-1.898377,2.201787
1924000,-0.517148,-1.946486,8.836999,-3.607178,-1.608301,2.476597
1928000,-0.526724,-1.932121,8.870518,-3.103362,-1.073950,2.400261
1932000,-0.395043,-1.927332,8.784326,-2.874354,-0.814408,2.461329
1936000,-0.423774,-1.953669,8.760384,-2.263667,0.162692,2.568200
1940000,-0.332794,-1.884237,8.707711,-1.851454,0.987119,2.781940
1944000,-0.047884,-1.896208,8.789114,-1.485041,2.513837,2.522398
1948000,0.028730,-1.891419,8.844181,-1.317102,3.384066,2.033848
1952000,-0.081403,-1.917756,8.762778,-0.935423,3.582539,1.117818
1956000,-0.193930,-1.920150,8.628703,-0.278934,2.681776,0.446062
1960000,-0.328006,-1.951274,8.669404,-0.004125,0.803913,0.400261
1964000,-0.409408,-1.927332,8.832211,0.056943,-0.890743,-0.103556
1968000,-0.591368,-1.989582,8.734048,0.179081,-2.188453,-0.057755
1972000,-0.545878,-1.989582,8.798691,0.408088,-2.967079,0.278123
1976000,-0.555455,-2.020706,8.578424,0.637096,-3.745705,0.201787
1980000,-0.584185,-2.078167,8.599973,0.530226,-3.669369,0.537665
1984000,-0.531513,-2.097321,8.532935,0.545493,-3.516698,0.949879
1988000,-0.311246,-2.013524,8.549694,0.331753,-3.165553,0.980413
1992000,-0.347159,-2.075773,8.564059,0.377554,-1.715171,0.690337
1996000,-0.375890,-2.097321,8.504205,0.438623,-0.661736,0.461329
