time_us,ax,ay,az,gx,gy,gz
0,-0.162806,-0.842759,8.954314,-1.133896,2.086356,1.194154
4000,-0.225055,-0.835576,9.054871,-0.446873,3.765745,1.148352
8000,-0.213084,-0.814029,8.932767,0.392821,4.788646,1.316291
12000,-0.229843,-0.854730,8.848969,0.805035,4.620707,0.934612
16000,-0.229843,-0.737414,8.980651,1.461524,5.216127,1.224688
20000,-0.239420,-0.878672,8.999804,1.766867,6.498569,1.209421
24000,-0.304064,-0.830788,8.825027,1.904272,6.055821,1.331558
28000,-0.296881,-0.746991,8.640674,2.652363,4.193226,0.965146
32000,-0.260968,-0.809240,8.707711,2.682898,2.452768,0.919345
36000,-0.294487,-0.703895,8.671799,2.820302,1.216127,0.858276
40000,-0.328006,-0.730232,8.595184,2.850837,0.071089,0.965146
44000,-0.308852,-0.691924,8.564059,2.835569,-0.951812,0.766673
48000,-0.251391,-0.689530,8.274361,2.301218,-1.806774,0.690337
52000,-0.237026,-0.632069,8.216900,1.873737,-2.692270,0.476597
56000,-0.227449,-0.624887,8.221688,1.156180,-2.951812,0.232322
60000,-0.107739,-0.675165,8.157045,-0.065194,-2.722805,0.110184
64000,-0.134075,-0.653617,8.113950,-1.378171,-2.173186,-0.073022
68000,-0.114922,-0.687136,8.020576,-2.584278,-1.669369,-0.485235
72000,-0.114922,-0.627281,8.245630,-3.607178,-1.211354,-0.531037
76000,-0.155623,-0.646434,8.233660,-4.645347,-0.478530,-0.836380
80000,-0.253785,-0.746991,8.334216,-5.607179,-0.005247,-0.760045
84000,-0.373495,-0.768539,8.281544,-6.156797,0.559638,-0.775312
88000,-0.450110,-0.751779,8.406042,-7.133897,0.880249,-0.363098
92000,-0.483629,-0.787692,8.633492,-7.546110,0.956585,-0.088289
96000,-0.433351,-0.816423,8.757990,-7.851454,0.819180,0.049116
100000,-0.402226,-0.907402,8.992621,-7.759851,-0.066316,0.232322
104000,-0.359130,-0.881066,9.176975,-6.675881,0.177959,0.201787
108000,-0.275333,-0.830788,9.299079,-5.515575,0.498570,0.323925
112000,-0.306458,-0.885855,9.387665,-4.172065,0.529104,0.201787
116000,-0.239420,-0.931344,9.718064,-2.324736,0.666508,0.094917
120000,-0.189142,-0.928950,9.672575,-0.034660,1.796279,-0.240961
124000,-0.227449,-0.907402,9.493010,1.614195,1.948951,-0.927984
128000,-0.330400,-0.928950,9.382876,2.896638,1.857348,-0.912716
132000,-0.502782,-0.864307,8.966286,3.507325,1.384066,-0.851648
136000,-0.541090,-0.842759,8.983045,3.843203,1.032921,-0.775312
140000,-0.565032,-0.814029,8.607155,3.522592,0.223760,-0.561571
144000,-0.684742,-0.864307,8.408437,2.972974,-0.768606,-0.149358
148000,-0.610521,-0.780510,8.473080,2.255417,-2.249522,-0.103556
152000,-0.536301,-0.766145,8.573636,1.049310,-3.180820,0.094917
156000,-0.447716,-0.806846,8.726865,0.408088,-3.791507,-0.515770
160000,-0.553061,-0.804452,8.705317,-0.370538,-3.806774,-0.485235
164000,-0.555455,-0.845153,8.784326,-0.691148,-3.012881,-0.546304
168000,-0.672771,-0.842759,8.892065,-1.057560,-2.173186,-0.607373
172000,-0.632069,-0.842759,8.913613,-1.164430,-0.615934,-0.179892
176000,-0.737414,-0.871489,8.865729,-1.103362,0.727577,0.155986
180000,-0.718261,-0.897826,8.772355,-1.118629,1.506203,0.904078
184000,-0.675165,-0.912191,8.702923,-1.378171,2.910783,1.591100
188000,-0.608127,-0.873884,8.774749,-1.607178,3.903150,2.201787
192000,-0.524330,-0.849942,8.561666,-1.851454,4.574905,2.476597
196000,-0.493206,-0.828394,8.468291,-2.492675,5.185593,2.629268
200000,-0.411803,-0.804452,8.374918,-2.981224,5.032921,2.873543
204000,-0.438139,-0.799663,8.501810,-2.920156,4.544371,2.934612
208000,-0.316035,-0.792481,8.513782,-2.630080,3.277195,2.629268
212000,-0.237026,-0.782904,8.497022,-2.080461,2.361165,2.110184
216000,-0.256180,-0.758962,8.516175,-1.943056,1.139791,1.636902
220000,-0.328006,-0.739808,8.511387,-1.668247,0.345898,1.331558
224000,-0.253785,-0.782904,8.504205,-1.469774,-0.341125,0.675070
228000,-0.349553,-0.735020,8.444349,-1.576644,-0.921278,0.507131
232000,-0.462081,-0.847547,8.552089,-1.576644,-2.157919,0.094917
236000,-0.481235,-0.778116,8.547300,-1.652980,-3.028148,0.339192
240000,-0.545878,-0.785298,8.504205,-2.065194,-3.150285,0.155986
244000,-0.560243,-0.866701,8.650250,-2.217866,-2.860209,0.400261
248000,-0.627281,-0.873884,8.769960,-2.813286,-2.371660,0.491864
252000,-0.653617,-0.890643,8.817844,-3.362904,-0.615934,0.949879
256000,-0.672771,-0.974440,8.789114,-3.943056,1.322997,1.743772
260000,-0.766145,-1.007959,8.822633,-4.233133,2.040554,2.369726
264000,-0.758962,-1.007959,8.980651,-4.370538,2.284829,2.858276
268000,-0.725443,-0.988805,9.121908,-4.401072,3.185592,3.636902
272000,-0.723049,-1.070208,9.160215,-4.675881,4.116890,4.171253
276000,-0.596156,-1.022324,9.126697,-4.294202,5.139791,4.720871
280000,-0.533907,-1.003170,9.176975,-3.744583,5.811547,5.270490
284000,-0.493206,-1.007959,9.392453,-2.981224,7.170325,5.423162
288000,-0.462081,-1.007959,9.349358,-1.393438,8.681775,5.713238
292000,-0.421380,-0.967257,9.179369,-0.523209,9.613073,5.789574
296000,-0.402226,-0.981623,9.153033,0.545493,10.010019,5.560566
300000,-0.407014,-0.890643,8.906430,1.339386,10.529103,5.591101
304000,-0.409408,-0.854730,8.724471,1.400455,10.803913,5.621635
308000,-0.423774,-0.804452,8.451532,1.263050,10.468035,5.438429
312000,-0.495600,-0.725443,8.214506,0.728699,10.177958,5.468963
316000,-0.457293,-0.727837,8.094796,0.316485,9.170325,5.362093
320000,-0.454898,-0.708684,7.975086,-0.309469,7.750478,5.530032
324000,-0.361524,-0.684742,8.010999,-1.103362,5.887883,4.873543
328000,-0.361524,-0.703895,8.015787,-1.744583,4.513837,4.446063
332000,-0.313640,-0.754174,7.893683,-2.645346,3.109257,3.865910
336000,-0.375890,-0.775721,7.958326,-3.729316,1.979486,3.362093
340000,-0.486023,-0.723049,8.090008,-5.149163,1.292463,3.316291
344000,-0.459687,-0.816423,8.025364,-6.492675,0.529104,3.117818
348000,-0.481235,-0.833182,8.061277,-7.652981,0.208493,2.949879
352000,-0.531513,-0.809240,8.078036,-8.767485,0.452768,3.026215
356000,-0.529119,-0.847547,8.346188,-9.744583,0.254295,3.056749
360000,-0.414197,-0.936133,8.700529,-9.652981,1.414600,3.133085
364000,-0.332794,-0.986411,8.889671,-9.194965,3.399333,3.056749
368000,-0.260968,-1.039083,9.136273,-8.630079,5.292463,3.102551
372000,-0.258574,-1.149217,9.083601,-7.775118,6.834447,2.919345
376000,-0.122104,-1.091756,9.308656,-6.767485,9.185592,2.644536
380000,-0.227449,-1.182736,9.516952,-5.393438,10.223760,2.583467
384000,-0.150835,-1.441309,10.220847,-1.851454,9.078722,2.125452
388000,-0.004788,-1.565808,11.604695,4.988241,7.506203,1.881177
392000,0.138864,-1.647211,12.497733,13.476790,5.613073,0.705604
396000,0.050278,-1.778892,13.043611,23.675264,4.269562,-0.317297
400000,-0.093374,-1.807622,13.053187,32.820301,3.124524,-1.477602
404000,-0.100556,-1.762132,13.117831,40.606564,1.109257,-2.439434
408000,-0.007183,-1.745373,13.697227,48.713432,-3.974713,-3.798213
412000,0.098162,-1.936909,14.808138,61.201981,-12.218988,-4.500503
416000,0.610521,-1.932121,16.177620,77.278320,-20.218988,-6.164625
420000,1.410185,-2.047042,16.572664,92.270683,-17.226622,-9.156992
424000,1.563414,-1.836353,15.729905,104.957710,-5.944179,-11.981419
428000,1.321599,-1.771709,14.808138,115.812668,1.155058,-14.576838
432000,0.706290,-1.757344,14.389153,125.232513,4.513837,-17.187525
436000,-0.074220,-2.070984,14.322115,134.576019,9.429867,-17.004318
440000,-0.280122,-2.243367,15.251065,145.965332,11.857347,-14.958518
444000,0.174777,-2.415750,16.730682,159.965332,20.635973,-13.141725
448000,0.706290,-2.367866,17.535133,174.316483,36.223759,-12.408900
452000,1.072602,-2.475605,17.247829,190.347015,54.116890,-12.500503
456000,0.948104,-2.439692,16.330851,203.934799,63.674145,-13.981419
460000,2.707842,-1.692701,14.676456,205.736328,88.529106,-17.721876
464000,-2.106898,-3.086126,16.996437,224.179077,69.124527,-14.057755
468000,0.203507,-3.179500,19.612701,247.583649,56.819180,-14.164625
472000,0.866701,-3.643975,19.612701,267.476807,78.910789,-12.195160
476000,0.165200,-3.730166,18.171991,292.423370,76.345901,-13.599740
480000,-0.466869,-3.593697,15.950171,306.591309,61.307728,-15.187526
484000,-0.818817,-3.667917,15.002068,316.621826,55.414600,-15.324930
488000,-1.130063,-3.691859,15.272613,325.354675,54.193226,-14.408900
492000,-1.584962,-3.780444,14.650120,331.782135,53.338264,-12.347831
496000,-2.343924,-3.507505,12.837709,334.408112,51.704678,-8.363098
500000,-2.434903,-3.220201,9.981427,334.972992,43.994751,-3.996686
504000,-3.220201,-2.513912,8.025364,325.400452,29.643608,-2.485235
508000,-3.428497,-2.135628,7.350199,318.896637,23.353531,1.682703
512000,-3.081338,-1.707066,7.278373,311.003510,20.926050,6.843009
516000,-2.870648,-1.271321,6.768408,305.156189,21.292461,12.369726
520000,-2.583344,-0.790087,5.738902,300.285950,21.292461,17.270491
524000,-2.008735,-0.165200,4.951209,292.072205,20.284828,19.988047
528000,-1.244985,0.081403,5.961562,286.652374,24.819180,22.262857
532000,-0.782904,0.397437,6.445191,285.324127,32.025288,23.117819
536000,-0.737414,0.936133,5.561730,281.950073,34.666508,22.751406
540000,-1.084573,1.450886,4.525041,273.308868,33.246662,22.171253
544000,-1.321599,1.723825,4.381389,263.736328,33.231392,21.560566
548000,-1.493982,2.018312,4.797980,253.659988,31.139790,21.591101
552000,-1.726219,2.231396,5.566519,244.972961,32.025288,22.476597
556000,-1.719037,2.420538,5.753267,237.324112,35.475670,23.514765
560000,-1.874660,2.516306,5.106832,230.698151,39.979485,24.568201
564000,-2.262521,2.839523,4.551377,225.278305,42.574905,26.568201
568000,-2.576161,3.059790,4.266468,219.659988,44.376431,29.743773
572000,-2.853889,3.418920,3.866636,212.652359,47.032921,33.652168
576000,-2.652776,3.667917,4.407725,206.942429,43.887882,36.430798
580000,-2.406173,3.967192,4.551377,201.263046,44.483303,38.827744
584000,-2.207454,4.156334,4.723760,196.530212,45.002384,41.530033
588000,-2.149993,4.407725,5.080496,194.499680,40.284828,42.751408
592000,-1.503559,4.771644,5.425261,192.347015,38.605438,43.484230
596000,-1.137246,5.204995,5.475539,189.171448,40.529102,42.919346
600000,-0.869095,5.487510,5.159505,184.728699,39.490936,41.407894
604000,-0.584185,5.813122,4.745308,178.682892,38.926048,38.980415
608000,-0.830788,5.899313,4.982334,172.316483,36.727577,36.644535
612000,-0.936133,6.033388,5.291186,165.888992,32.513836,34.278126
616000,-0.790087,6.014235,5.956774,161.018768,32.223759,32.568199
620000,-0.720655,5.918467,6.244078,158.805023,33.597805,31.591103
624000,-0.794875,5.966351,6.217742,155.461517,34.330631,30.507132
628000,-0.967257,5.990293,6.172252,151.553116,37.567272,29.789574
632000,-1.074997,5.925649,6.766014,149.354645,41.521469,30.247589
636000,-0.957681,5.959168,7.065289,149.766861,47.002384,30.904078
640000,-0.835576,6.277597,6.064513,151.247772,52.284828,32.171253
644000,-0.632069,6.572083,4.754885,151.400452,53.964218,32.308659
648000,-0.380678,6.873753,3.801992,149.537857,54.895515,31.881176
652000,-0.169988,7.139510,3.134010,145.721054,55.735210,30.552933
656000,0.186748,7.445967,3.220201,139.751587,55.460400,28.339193
660000,0.287304,7.536947,3.541024,134.331741,55.857349,25.926979
664000,0.402226,7.551312,3.756502,130.896637,54.177959,23.133085
668000,0.529119,7.608773,3.756502,128.423355,52.010021,19.865910
672000,0.679953,7.627927,3.775656,126.255417,52.391701,16.491865
676000,0.565032,7.608773,3.813963,124.331757,55.124523,13.560566
680000,0.301669,7.592013,3.957615,122.499695,55.796280,10.583467
684000,0.007183,7.611167,4.292804,121.247787,57.048187,8.491863
688000,-0.150835,7.548918,4.228160,120.041679,59.597805,6.705605
692000,-0.306458,7.584831,3.550601,118.041679,59.918415,5.010948
696000,-0.826000,7.448361,3.524265,113.843201,56.681774,3.377360
700000,-0.916979,7.264008,4.321534,112.362289,58.223759,3.514765
704000,-1.031901,7.122750,4.508282,112.316483,64.406967,4.476597
708000,-1.086968,7.117962,4.110844,112.667633,66.468040,4.690337
712000,-1.254562,7.218518,3.557784,112.255417,65.613075,4.843009
716000,-1.204283,7.431602,3.529053,112.362289,66.284836,5.133085
720000,-1.120486,7.644686,3.035848,110.270683,64.361168,4.781940
724000,-0.962469,7.872135,2.370260,107.522591,63.948948,4.217055
728000,-0.905008,8.116343,1.908179,103.797401,62.345898,2.705604
732000,-0.756568,8.250419,1.783680,98.789772,61.506203,0.430795
736000,-0.916979,8.202535,1.570596,95.125648,63.078720,-1.324930
740000,-1.235408,8.173804,1.192312,92.347023,60.941319,-2.088289
744000,-1.462857,8.147469,1.003170,89.385185,57.429867,-3.538671
748000,-1.757344,8.003817,0.957681,86.591293,55.277195,-4.454701
752000,-2.188300,7.987057,1.051055,83.965340,51.582539,-4.958518
756000,-2.427721,7.809886,1.479617,81.385185,46.376431,-4.714243
760000,-2.621651,7.833828,1.606509,80.118011,45.872616,-3.676075
764000,-2.904167,7.802703,1.369483,79.369919,43.842079,-2.546304
768000,-3.071761,7.745243,0.711078,77.675262,41.536736,-0.973785
772000,-3.162740,7.730877,0.502782,74.881371,40.254295,0.400261
776000,-3.332729,7.635109,0.677559,70.835571,39.322998,2.476597
780000,-3.385401,7.556100,0.962469,67.385185,39.597805,4.675070
784000,-3.191471,7.565677,1.065420,64.621826,40.773376,6.598734
788000,-3.210624,7.414843,0.854730,63.934807,41.109257,8.751406
792000,-3.289633,7.390901,0.711078,63.064579,40.452766,10.614001
796000,-3.275268,7.503428,0.550666,61.919540,39.750477,12.827742
800000,-2.992752,7.656657,0.402226,59.797401,40.605438,15.102551
804000,-2.616863,7.776367,0.670376,56.484425,41.887882,16.629269
808000,-2.331953,7.924808,0.486023,54.240150,44.315365,17.728506
812000,-1.908179,8.094796,0.320823,51.827938,43.552006,18.003315
816000,-1.472434,8.236053,0.122104,50.866104,42.452766,17.224689
820000,-1.084573,8.439561,-0.143652,49.400455,41.155056,15.942245
824000,-0.914585,8.561666,-0.462081,47.446259,39.597805,13.896443
828000,-0.737414,8.746018,-0.905008,44.026409,37.857349,11.667436
832000,-0.481235,8.808268,-0.873884,39.827938,35.857349,8.858275
836000,-0.442927,8.734048,-0.751779,36.087479,33.338264,5.560566
840000,-0.811634,8.707711,-0.761356,32.484425,29.628340,2.995681
844000,-1.015141,8.645462,-0.526724,29.110380,26.071089,0.888810
848000,-1.024718,8.573636,-0.354342,26.728701,23.552004,-0.866915
852000,-1.259350,8.508993,-0.335188,24.408089,21.139790,-2.164625
856000,-1.465251,8.255207,0.057461,21.369921,18.803913,-2.866915
860000,-1.740585,8.027759,1.249773,19.736334,17.658875,-3.095922
864000,-1.860295,7.694964,2.248155,21.003510,19.521469,-1.874548
868000,-2.056619,7.663840,2.279280,23.369921,21.826813,-0.408900
872000,-2.434903,7.759608,1.865083,25.079845,21.506203,1.453696
876000,-2.446874,7.814674,1.458069,27.018776,21.368797,3.545299
880000,-2.580950,8.051701,1.063026,26.972975,22.910784,5.774307
884000,-2.489970,8.200141,0.682347,25.843204,24.956585,7.865910
888000,-2.343924,8.389283,0.196325,23.583662,24.895515,9.407894
892000,-2.023100,8.585608,0.237026,20.362288,23.597805,10.094917
896000,-1.580173,8.686164,0.409408,17.522593,23.368797,9.667436
900000,-1.367089,8.688558,0.380678,14.805035,23.017653,8.781940
904000,-1.079785,8.631097,0.632069,12.087478,22.758112,7.102551
908000,-1.216254,8.595184,0.876278,10.713432,23.887882,5.652169
912000,-1.173159,8.640674,0.921768,9.156180,23.872616,4.736139
916000,-1.058237,8.590396,0.845153,7.125646,23.994753,3.102551
920000,-1.048660,8.621520,0.581791,4.667631,24.834448,1.988047
924000,-1.000776,8.576031,0.792481,3.186715,24.620707,0.659803
928000,-1.106121,8.413225,0.744597,2.972974,26.819180,-0.103556
932000,-1.491588,8.370130,0.550666,2.637096,25.368797,-0.683709
936000,-2.035071,8.207323,0.447716,2.621829,21.460402,-0.057755
940000,-2.305616,8.087613,1.007959,3.003508,16.926050,1.133085
944000,-2.782062,7.946355,1.462857,4.469157,14.788646,3.346826
948000,-3.045424,8.003817,1.532289,5.034043,12.025287,6.247589
952000,-2.834735,8.066066,1.508347,5.003509,9.185592,8.537665
956000,-2.425326,8.324639,1.474828,5.201982,8.071088,10.110184
960000,-1.723825,8.645462,1.213860,4.072211,6.300097,9.957512
964000,-1.350330,8.817844,1.230620,2.194348,5.506203,9.209421
968000,-0.928950,8.985439,1.505953,0.911905,5.704677,7.545299
972000,-0.667982,8.956709,1.414973,-0.156797,5.704677,5.530032
976000,-0.459687,8.961497,1.575385,-0.156797,6.361165,2.812474
980000,-0.596156,9.033323,1.529895,-1.286568,6.437501,0.354459
984000,-0.531513,8.985439,1.802834,-2.217866,8.025287,-2.149358
988000,-0.471658,8.983045,1.742979,-2.736950,10.086355,-4.134090
992000,-0.565032,9.004593,1.335965,-4.156797,11.185592,-6.378365
996000,-1.106121,8.860941,1.319205,-6.202599,9.155058,-8.790579
1000000,-1.786075,8.705317,1.362301,-6.889622,7.521471,-8.607373
1004000,-2.305616,8.470686,1.742979,-7.652981,3.521470,-7.920350
1008000,-2.535460,8.410830,2.023100,-7.118629,1.063455,-7.080655
1012000,-2.707842,8.353370,2.047042,-6.706415,-1.608301,-5.721877
1016000,-2.827552,8.413225,1.987187,-7.011759,-3.547232,-4.378365
1020000,-2.698265,8.564059,1.996764,-7.561378,-4.509064,-3.111190
1024000,-2.489970,8.652645,2.020706,-7.729317,-5.425095,-2.195159
1028000,-2.236184,8.767567,1.951274,-8.675881,-5.394560,-1.935617
1032000,-2.075773,8.841787,2.109292,-9.820919,-5.837308,-2.088289
1036000,-1.728614,8.913613,2.269703,-10.126263,-4.325858,-2.912716
1040000,-1.505953,8.966286,2.257732,-10.675881,-1.455629,-4.057755
1044000,-1.189918,9.052477,1.941698,-11.485042,0.605440,-5.355464
1048000,-1.170765,9.054871,1.951274,-12.187331,3.322997,-7.019587
1052000,-1.414973,8.757990,2.252944,-12.049927,4.987119,-8.195159
1056000,-1.795651,8.535329,2.688689,-10.965958,5.567272,-9.050121
1060000,-2.262521,8.389283,2.925714,-9.378171,5.231394,-8.637908
1064000,-2.633622,8.343793,2.873042,-7.851454,3.918417,-7.721877
1068000,-2.841918,8.324639,2.521094,-6.416339,2.391699,-6.179892
1072000,-3.059790,8.300697,2.353500,-5.729317,0.239028,-4.454701
1076000,-3.124433,8.341399,2.252944,-5.378171,-2.509064,-2.668442
1080000,-2.997540,8.377312,2.305616,-5.332370,-3.104484,-0.607373
1084000,-2.813187,8.451532,2.319981,-5.088095,-3.623568,0.949879
1088000,-2.636016,8.571242,2.013524,-5.790385,-2.677003,1.346826
1092000,-2.619257,8.528147,2.248155,-7.149163,-1.073950,1.988047
1096000,-2.600103,8.547300,2.375048,-6.401072,0.849715,2.537665
1100000,-2.504335,8.585608,2.360683,-7.362904,0.300096,2.934612
1104000,-2.300828,8.640674,2.252944,-7.805653,0.071089,2.720871
1108000,-2.327164,8.757990,2.403779,-9.225499,1.124524,2.766673
1112000,-2.300828,8.786720,2.499547,-10.294202,1.414600,2.827742
1116000,-2.226608,8.755595,2.624045,-9.973591,2.132157,2.873543
1120000,-2.221819,8.813056,2.760514,-9.683515,1.781012,2.552932
1124000,-2.537854,8.683769,2.964022,-9.378171,-0.051049,2.659803
1128000,-2.671929,8.585608,3.409343,-7.805653,-1.043415,3.331558
1132000,-2.731784,8.623915,3.521871,-6.004126,-1.028148,3.881177
1136000,-2.813187,8.628703,3.450045,-4.859087,-1.196087,4.812475
1140000,-2.786851,8.760384,3.198653,-3.927789,-1.623568,6.064383
1144000,-2.710236,8.822633,2.865860,-3.744583,-1.623568,6.751406
1148000,-2.559402,9.136273,2.468422,-4.309469,-1.531965,7.255223
1152000,-2.217031,9.167398,2.327164,-6.065194,-1.852576,6.812475
1156000,-1.980005,9.220071,2.317587,-7.210233,-0.264789,6.293391
1160000,-1.912967,9.227253,2.260126,-7.912522,1.261928,5.224689
1164000,-1.833959,9.220071,2.315193,-9.607179,1.063455,4.140719
1168000,-1.752556,9.186552,2.398990,-10.584278,1.613073,3.163620
1172000,-1.699883,9.081207,2.580950,-10.752217,2.773379,2.125452
1176000,-1.798046,9.009381,2.717419,-11.027026,3.933684,1.514765
1180000,-1.853112,8.951921,2.492364,-11.515575,5.109257,0.552933
1184000,-2.070984,8.834604,2.619257,-11.378171,4.162692,0.140719
1188000,-2.329558,8.741230,2.633622,-10.935423,2.254295,0.537665
1192000,-2.552219,8.688558,2.621651,-11.057561,0.605440,1.072016
1196000,-2.583344,8.633492,2.779668,-10.706415,-0.310591,2.293390
1200000,-2.583344,8.609550,3.031059,-10.416339,-0.493797,3.285757
1204000,-2.554613,8.678981,2.865860,-9.790385,-1.028148,4.415528
1208000,-2.315193,8.700529,2.468422,-10.324736,-1.119751,4.934612
1212000,-2.413355,8.664616,2.717419,-12.278935,-2.234255,5.392627
1216000,-2.475605,8.473080,4.168305,-13.072827,-2.524331,6.171253
1220000,-2.300828,8.324639,4.843470,-9.790385,0.941318,7.377360
1224000,-2.439692,8.307879,4.790798,-6.828553,1.063455,8.614001
1228000,-2.463634,8.312668,4.805163,-2.874354,0.544371,9.377359
1232000,-2.466028,8.494628,4.639963,1.125646,2.147424,10.629268
1236000,-2.355895,8.674192,4.469975,3.659997,4.513837,11.697970
1240000,-2.267309,8.892065,3.792415,5.537859,6.437501,12.384994
1244000,-2.075773,9.014170,3.217807,5.354653,7.200860,12.614001
1248000,-1.881842,9.323022,2.724602,4.041677,6.971852,11.820107
1252000,-1.714248,9.406818,2.477999,2.148547,6.727577,10.904078
1256000,-1.455675,9.378088,2.303222,0.072211,5.796279,9.285756
1260000,-1.448492,9.375694,2.726996,-0.141530,4.223761,7.759039
1264000,-1.256956,9.294291,2.674323,-0.172064,4.605440,5.881177
1268000,-1.189918,9.263166,2.614468,-0.813286,4.437501,3.850643
1272000,-1.134852,9.248801,2.631228,-1.027026,5.246661,2.125452
1276000,-1.216254,9.176975,2.600103,-0.431606,4.880249,0.278123
1280000,-1.352724,9.078813,2.425326,-0.126262,4.391699,-1.447067
1284000,-1.553837,8.951921,2.516306,1.125646,4.177959,-2.271495
1288000,-1.838747,8.877700,2.267309,1.690531,3.475669,-3.019587
1292000,-2.049437,8.789114,2.159570,1.568394,2.635974,-3.141724
1296000,-2.331953,8.683769,2.154782,1.263050,2.742844,-2.744777
1300000,-2.470816,8.542512,2.293645,1.034043,2.544371,-1.721877
1304000,-2.664747,8.511387,2.092532,1.156180,0.941318,-0.897449
1308000,-2.707842,8.499416,2.140416,0.591295,-1.119751,0.354459
1312000,-2.621651,8.470686,2.351106,-0.065194,-2.295324,1.423162
1316000,-2.466028,8.449138,2.568978,-0.080461,-2.600667,2.339192
1320000,-2.437297,8.341399,3.177106,0.530226,-1.364026,3.667437
1324000,-2.171541,8.403648,3.162740,2.377554,1.216127,4.659803
1328000,-2.001553,8.487445,2.983175,3.415722,2.086356,4.873543
1332000,-1.898602,8.667010,2.695871,3.782134,2.269562,4.552933
1336000,-1.872266,8.753201,2.492364,4.011142,3.246661,4.384994
1340000,-1.953669,8.848969,2.231396,2.759233,3.399333,3.835375
1344000,-2.097321,8.731653,2.154782,2.224883,2.559638,3.881177
1348000,-2.097321,8.803479,1.987187,1.034043,3.216127,3.881177
1352000,-2.111686,8.722076,2.384625,1.995875,1.658875,4.125452
1356000,-1.991976,8.858546,2.138022,1.507325,1.918417,4.171253
1360000,-2.042254,8.844181,2.080561,1.782134,0.895516,3.423162
1364000,-2.006341,8.954314,1.898602,0.530226,0.544371,2.980413
1368000,-1.781286,8.971074,1.999158,-0.798018,0.910783,1.896444
1372000,-1.829170,9.004593,1.944092,-2.202598,1.490936,1.072016
1376000,-1.800440,8.959103,2.157176,-2.126262,2.040554,0.430795
1380000,-1.927332,8.918402,2.176329,-0.996492,1.979486,-0.057755
1384000,-1.910573,8.973468,2.121263,-0.462140,2.177959,-0.378365
1388000,-1.869871,8.956709,1.999158,-0.278934,2.819180,-0.927984
1392000,-1.917756,9.018958,1.889025,-0.843820,3.872615,-1.279129
1396000,-1.802834,9.090784,1.620875,-2.095728,4.727577,-1.950884
1400000,-1.654393,9.100361,1.388637,-4.248401,4.834447,-2.989052
1404000,-1.719037,9.097966,1.338359,-6.217866,3.750478,-3.889816
1408000,-1.941698,8.932767,1.347936,-7.118629,1.322997,-4.515770
1412000,-2.300828,8.731653,1.802834,-8.996491,-1.501431,-4.775311
1416000,-2.576161,8.542512,2.552219,-9.164431,-3.058682,-3.615006
1420000,-2.736573,8.307879,3.179500,-8.217866,-3.547232,-2.149358
1424000,-2.722207,8.315063,3.332729,-7.485042,-4.402194,-1.111190
1428000,-2.770091,8.439561,3.165135,-6.767485,-4.814407,0.293391
1432000,-2.655170,8.578424,2.947262,-6.340003,-5.669369,1.270490
1436000,-2.451663,8.621520,3.189077,-5.866721,-6.356392,1.774307
1440000,-2.224213,8.604761,3.445256,-4.767485,-4.402194,2.384994
1444000,-2.047042,8.777143,3.236961,-4.370538,-1.898377,2.415528
1448000,-1.910573,8.884883,2.889802,-4.187331,0.025287,2.339192
1452000,-1.869871,8.923190,2.817975,-4.080462,2.055821,2.247589
1456000,-1.982399,9.030929,2.686294,-3.271301,3.475669,1.957513
1460000,-2.070984,8.992621,2.425326,-3.271301,3.719944,1.865910
1464000,-2.097321,9.042900,2.540248,-3.240766,2.666508,1.484230
1468000,-2.030283,8.963891,2.717419,-3.546110,1.887883,1.636902
1472000,-1.783680,9.042900,2.971204,-2.965957,3.200860,1.560566
1476000,-1.788469,9.133880,2.863465,-2.813286,3.063455,0.720871
1480000,-1.711854,9.167398,2.748544,-3.118629,1.887883,-0.302029
1484000,-1.580173,9.244013,2.647987,-3.011759,1.536737,-1.172258
1488000,-1.527501,9.253590,2.679112,-3.439240,2.254295,-2.286762
1492000,-1.482011,9.272743,2.384625,-4.492675,2.712310,-3.218060
1496000,-1.532289,9.323022,1.917756,-6.034659,3.414600,-4.469968
1500000,-1.429338,9.232041,1.671153,-7.515575,3.704677,-5.172258
1504000,-1.604115,9.076419,1.587356,-8.477407,2.468035,-6.042487
1508000,-2.015918,8.939949,1.762132,-9.469774,0.315363,-6.332563
1512000,-2.387019,8.789114,2.205060,-9.698782,-1.852576,-5.523403
1516000,-2.389413,8.602366,2.746149,-8.859087,-3.196087,-4.500503
1520000,-2.389413,8.540117,3.040636,-7.378171,-3.165553,-3.523403
1524000,-2.398990,8.456321,3.100491,-5.759851,-3.822041,-2.332564
1528000,-2.324770,8.547300,3.224990,-4.630079,-4.906011,-1.721877
1532000,-2.226608,8.647857,3.172317,-3.805652,-5.196087,-1.401266
1536000,-2.149993,8.674192,3.014300,-3.439240,-5.577766,-1.279129
1540000,-2.099715,8.590396,3.057395,-4.065194,-4.738071,-1.355464
1544000,-2.334347,8.540117,3.375824,-4.904889,-4.432728,-1.279129
1548000,-2.331953,8.437167,3.615245,-3.912522,-2.860209,-0.454701
1552000,-2.346318,8.487445,3.509900,-3.317102,-1.516698,0.110184
1556000,-2.391808,8.429984,3.141193,-2.233133,-0.967079,0.843009
1560000,-2.315193,8.628703,2.932897,-1.927789,0.391699,1.514765
1564000,-2.190695,8.738836,2.592921,-3.256034,1.979486,2.018581
1568000,-1.941698,8.834604,2.169147,-4.538477,3.811547,1.835375
1572000,-1.651999,8.913613,1.920150,-5.897255,4.971852,1.545299
1576000,-1.556231,8.995016,1.618480,-7.546110,5.353531,0.537665
1580000,-1.412579,8.913613,1.666364,-8.462141,4.742845,-0.561571
1584000,-1.479617,8.781932,1.754950,-9.500309,3.796279,-1.966151
1588000,-1.702277,8.681376,2.023100,-9.866721,2.025287,-2.515770
1592000,-2.020706,8.583213,2.300828,-10.172065,-0.234255,-3.202793
1596000,-2.221819,8.499416,2.547431,-10.813286,-2.707537,-3.034854
1600000,-2.339135,8.418014,2.863465,-9.362904,-4.157919,-2.607373
1604000,-2.379837,8.339005,3.122039,-7.332370,-5.577766,-2.027220
1608000,-2.355895,8.465898,2.853889,-6.340003,-7.577766,-1.615006
1612000,-2.305616,8.468291,2.899378,-5.515575,-7.883110,-1.294396
1616000,-2.240973,8.453926,3.098097,-5.652981,-8.035782,-0.775312
1620000,-2.173935,8.429984,3.536236,-4.294202,-5.623568,-0.378365
1624000,-2.166753,8.453926,3.313575,-2.736950,-2.692270,0.430795
1628000,-2.176329,8.477868,3.002329,-1.607178,-1.562499,0.751406
1632000,-2.197877,8.537724,2.760514,-1.500308,-1.531965,1.041482
1636000,-1.994370,8.607155,2.880225,-1.836186,-0.081583,0.781940
1640000,-2.003947,8.669404,2.774880,-1.836186,1.643608,0.995681
1644000,-1.965640,8.743625,2.497152,-2.569010,2.498570,0.552933
1648000,-1.836353,8.738836,2.190695,-4.019392,2.269562,-0.088289
1652000,-1.845930,8.683769,2.142811,-5.194965,2.376432,-0.393632
1656000,-1.860295,8.714894,2.051831,-6.263667,1.475669,-1.172258
1660000,-1.944092,8.681376,2.080561,-7.286569,-0.463263,-1.584472
1664000,-2.013524,8.669404,1.924938,-8.187331,-2.280056,-1.981419
1668000,-2.099715,8.647857,2.006341,-9.194965,-4.417461,-2.454701
1672000,-2.427721,8.461109,2.633622,-10.004126,-7.883110,-2.424167
1676000,-2.547431,8.310274,3.306392,-8.904889,-9.150286,-1.569205
1680000,-2.516306,8.286332,3.519476,-6.843820,-9.089217,-0.637907
1684000,-2.470816,8.269572,3.682282,-5.072827,-9.623569,-0.210426
1688000,-2.473210,8.403648,3.584120,-3.194965,-8.249522,0.598734
1692000,-2.578555,8.487445,3.239355,-2.309469,-6.112117,1.377360
1696000,-2.542642,8.633492,2.983175,-1.820919,-4.661736,1.896444
1700000,-2.430115,8.765172,2.873042,-2.309469,-3.196087,2.278123
1704000,-2.308010,8.896853,2.671929,-3.011759,-1.913644,2.476597
1708000,-2.195483,8.899248,2.554613,-4.401072,-0.524331,2.384994
1712000,-2.123657,8.920795,2.614468,-5.347637,0.849715,1.820108
1716000,-2.080561,8.935161,2.791639,-6.095729,1.506203,1.499497
1720000,-2.085350,8.848969,2.964022,-6.370538,1.994753,0.919345
1724000,-2.207454,8.803479,3.038242,-6.278934,2.162692,0.675070
1728000,-2.233790,8.779537,2.983175,-6.416339,1.521470,0.155986
1732000,-2.190695,8.750807,3.256114,-6.202599,1.353531,-0.073022
1736000,-2.166753,8.786720,3.253720,-5.759851,2.941318,-0.256228
1740000,-2.149993,8.877700,2.944868,-5.622446,3.719944,-0.408900
1744000,-2.200271,8.844181,2.770091,-5.729317,2.880249,-0.653174
1748000,-2.207454,8.779537,2.947262,-5.149163,2.162692,-1.019587
1752000,-2.334347,8.753201,2.956839,-4.660614,2.254295,-0.561571
1756000,-2.355895,8.774749,2.904167,-3.714049,1.246661,-0.683709
1760000,-2.454057,8.793902,2.829947,-2.981224,0.544371,-0.271495
1764000,-2.444480,8.786720,3.057395,-2.599545,-0.585400,-0.118823
1768000,-2.408567,8.719683,3.378219,-1.515576,0.132157,0.446062
1772000,-2.451663,8.705317,3.325546,-0.172064,-0.386927,0.583467
1776000,-2.250550,8.841787,3.287239,0.240150,-1.730438,0.659803
1780000,-2.049437,8.932767,3.112462,0.560760,-0.921278,0.247589
1784000,-1.975216,8.951921,3.004723,1.140913,-0.753339,-0.103556
1788000,-1.903390,9.054871,2.961627,1.232516,-0.921278,-0.866915
1792000,-1.838747,9.038112,2.753332,0.789768,-0.509064,-1.691342
1796000,-1.810017,9.105149,2.612074,-0.110996,0.177959,-2.546304
1800000,-1.810017,9.004593,2.382231,-1.301835,0.300096,-3.462335
1804000,-1.778892,8.968679,2.604892,-2.553744,0.849715,-4.195159
1808000,-1.898602,8.863335,2.894590,-2.507942,2.300096,-4.408900
1812000,-1.877054,8.757990,2.707842,-2.278934,2.773379,-4.836380
1816000,-1.984793,8.726865,2.767697,-2.630080,2.773379,-5.233327
1820000,-2.078167,8.724471,2.817975,-2.294202,2.758112,-5.218060
1824000,-2.231396,8.540117,2.863465,-2.202598,2.483302,-5.111189
1828000,-2.470816,8.513782,2.985569,-1.256034,2.177959,-4.546304
1832000,-2.585738,8.465898,3.031059,0.072211,0.956585,-3.416533
1836000,-2.693477,8.384495,2.985569,0.698165,-0.005247,-2.271495
1840000,-2.686294,8.422802,2.882619,0.805035,-0.249522,-1.080655
1844000,-2.640805,8.432379,2.803610,0.667630,-0.600667,-0.424167
1848000,-2.497152,8.542512,2.554613,0.163814,-0.646469,0.446062
1852000,-2.391808,8.659827,2.372654,-1.057560,-0.677003,0.507131
1856000,-2.322376,8.664616,2.549825,-2.187331,-1.348759,0.980413
1860000,-2.212242,8.621520,2.724602,-2.324736,-0.600667,1.026215
1864000,-2.090138,8.588001,2.738967,-2.065194,-0.417461,0.858276
1868000,-1.970428,8.525752,2.985569,-1.683514,0.116890,0.766673
1872000,-1.977611,8.494628,3.131616,-1.042293,1.277195,0.384994
1876000,-2.157176,8.477868,3.215413,0.102745,1.765745,0.629268
1880000,-2.231396,8.386889,3.112462,0.423356,1.322997,0.552933
1884000,-2.264915,8.475474,2.952051,0.667630,0.819180,0.629268
1888000,-2.286463,8.501810,3.011906,0.805035,0.773379,0.919345
1892000,-2.312799,8.564059,2.624045,0.713432,0.574905,1.316291
1896000,-2.221819,8.561666,2.545036,-0.004125,0.101623,1.545299
1900000,-2.248155,8.621520,2.494758,-1.103362,-0.218988,1.881177
1904000,-2.142811,8.645462,2.439692,-2.034660,-0.218988,1.545299
1908000,-2.051831,8.674192,2.487576,-3.179698,-0.325858,1.682703
1912000,-2.047042,8.738836,2.578555,-3.805652,-0.692270,1.850642
1916000,-1.934515,8.676587,2.741361,-4.004126,-0.615934,1.194154
1920000,-1.932121,8.681376,2.798822,-4.065194,-0.295324,1.346826
1924000,-1.807622,8.760384,2.849100,-4.401072,0.406966,1.026215
1928000,-1.745373,8.750807,2.935291,-4.798018,0.987119,0.461329
1932000,-1.640028,8.789114,2.899378,-5.378171,1.613073,-0.149358
1936000,-1.886631,8.592790,3.153164,-6.049927,0.406966,-1.019587
1940000,-2.090138,8.264784,4.146757,-4.736950,-0.417461,-0.607373
1944000,-2.334347,8.190564,4.395754,-1.775118,0.269562,0.232322
1948000,-2.372654,8.204929,4.479551,0.896638,-0.509064,1.102551
1952000,-2.310405,8.243237,4.378995,3.507325,-0.020514,1.942245
1956000,-2.226608,8.437167,4.103662,5.461524,1.964218,2.858276
1960000,-2.118869,8.609550,3.560178,6.377554,3.735211,3.362093
1964000,-1.970428,8.779537,2.870648,5.904272,4.773379,3.224688
1968000,-1.848324,8.918402,2.518700,4.514959,5.506203,2.781940
1972000,-1.687912,9.069236,2.173935,2.988241,6.208493,2.110184
1976000,-1.572991,9.023746,2.023100,1.171447,6.071089,0.873543
1980000,-1.692701,9.042900,2.145205,-0.660614,5.490936,-0.073022
1984000,-1.680730,9.021352,2.193089,-2.095728,5.261929,-1.126457
1988000,-1.824382,8.887277,2.286463,-3.256034,4.987119,-1.996686
1992000,-2.032677,8.786720,2.530671,-3.790385,3.353531,-2.424167
1996000,-2.255338,8.695741,2.750938,-4.080462,1.414600,-2.393632
