time_us,ax,ay,az,gx,gy,gz
0,-0.105345,-0.462081,8.813056,-3.607178,2.376432,0.736139
4000,-0.059855,-0.507571,8.856153,-3.729316,3.063455,0.675070
8000,-0.062249,-0.462081,8.848969,-3.607178,3.628341,0.736139
12000,-0.014365,-0.548272,8.781932,-3.652980,3.307730,0.629268
16000,-0.114922,-0.526724,8.858546,-3.561377,2.849715,0.614001
20000,-0.215478,-0.538695,8.997410,-3.469774,2.239028,0.583467
24000,-0.189142,-0.497994,8.822633,-3.210232,1.613073,0.781940
28000,-0.174777,-0.488417,8.836999,-2.889621,1.246661,0.797207
32000,-0.222661,-0.488417,8.935161,-2.599545,0.910783,0.919345
36000,-0.162806,-0.495600,8.918402,-2.263667,0.513837,0.949879
40000,-0.047884,-0.445322,8.949526,-1.836186,0.330631,0.751406
44000,-0.126893,-0.375890,8.832211,-1.820919,0.391699,0.736139
48000,-0.110133,-0.368707,8.765172,-1.714049,0.498570,0.888810
52000,-0.179565,-0.478840,8.734048,-1.607178,0.681776,0.552933
56000,-0.165200,-0.464475,8.681376,-1.729316,1.231394,0.461329
60000,-0.136469,-0.387861,8.643068,-2.233133,1.933684,0.400261
64000,-0.129287,-0.438139,8.477868,-2.477408,2.590173,0.278123
68000,-0.287304,-0.478840,8.468291,-2.706415,1.964218,-0.134090
72000,-0.332794,-0.464475,8.566454,-3.011759,1.399333,-0.088289
76000,-0.296881,-0.509965,8.559271,-3.271301,0.941318,-0.531037
80000,-0.387861,-0.550666,8.592790,-2.965957,-0.188453,-0.424167
84000,-0.567426,-0.497994,8.525752,-3.286568,-1.593034,0.155986
88000,-0.435745,-0.495600,8.604761,-4.126263,-2.386927,0.491864
92000,-0.265756,-0.553061,8.650250,-4.660614,-2.539598,0.155986
96000,-0.191536,-0.507571,8.872911,-4.614813,-3.364026,0.003314
100000,-0.146046,-0.533907,8.805874,-4.706415,-3.043415,-0.256228
104000,-0.134075,-0.545878,8.746018,-4.431606,-3.012881,-0.317297
108000,-0.272939,-0.569820,8.927979,-4.675881,-2.554866,-0.637907
112000,-0.241814,-0.598550,8.899248,-4.477407,-1.394560,-0.408900
116000,-0.244209,-0.639252,9.052477,-4.920156,-0.005247,-0.134090
120000,-0.265756,-0.684742,9.030929,-4.492675,1.521470,0.278123
124000,-0.186748,-0.670376,9.107543,-4.309469,2.483302,0.430795
128000,-0.153229,-0.612916,9.153033,-3.637713,3.032921,0.369726
132000,-0.100556,-0.675165,9.255983,-2.904888,4.208493,0.308658
136000,-0.088585,-0.636858,9.150639,-2.110996,5.200860,0.018581
140000,-0.201113,-0.658405,9.174581,-1.805652,4.864982,-0.027220
144000,-0.208296,-0.703895,9.188946,-1.103362,5.155058,-0.179892
148000,-0.229843,-0.656011,9.117120,-0.843820,5.719944,-0.317297
152000,-0.208296,-0.689530,9.030929,-0.431606,5.536737,-0.164625
156000,-0.193930,-0.639252,8.805874,-0.324736,5.567272,-0.195159
160000,-0.289698,-0.663194,8.705317,-0.278934,4.681776,-0.439434
164000,-0.232238,-0.656011,8.710106,-0.385804,4.239028,-0.485235
168000,-0.225055,-0.632069,8.621520,-0.599545,4.590173,-0.424167
172000,-0.237026,-0.600945,8.547300,-0.401072,4.452768,-0.531037
176000,-0.239420,-0.608127,8.434772,-0.706415,4.086356,-0.576838
180000,-0.260968,-0.572214,8.418014,-1.179698,3.750478,-0.576838
184000,-0.313640,-0.536301,8.576031,-1.240766,3.918417,-0.469968
188000,-0.361524,-0.586579,8.513782,-1.225499,3.948951,-0.683709
192000,-0.292093,-0.557849,8.468291,-1.561377,3.613073,-0.851648
196000,-0.373495,-0.486023,8.434772,-1.851454,3.658875,-0.592106
200000,-0.440533,-0.541090,8.377312,-2.309469,3.368799,-0.668442
204000,-0.450110,-0.557849,8.446744,-2.920156,3.124524,-0.561571
208000,-0.440533,-0.603339,8.480263,-3.317102,2.803913,-0.363098
212000,-0.533907,-0.543484,8.434772,-3.790385,2.269562,-0.256228
216000,-0.502782,-0.620098,8.583213,-4.324736,1.948951,0.278123
220000,-0.409408,-0.586579,8.518570,-4.691149,1.994753,0.491864
224000,-0.335188,-0.648829,8.588001,-4.965958,1.994753,0.766673
228000,-0.177171,-0.651223,8.825027,-4.736950,2.422234,0.827742
232000,-0.244209,-0.627281,8.937555,-5.057561,2.681776,0.980413
236000,-0.088585,-0.730232,9.028535,-4.523210,2.803913,0.644536
240000,-0.124498,-0.672771,9.162610,-4.294202,3.582539,0.614001
244000,-0.141258,-0.667982,9.162610,-4.110995,4.055821,0.323925
248000,-0.146046,-0.770933,9.284714,-4.202599,5.109257,0.339192
252000,-0.196325,-0.806846,9.399636,-3.332370,5.414600,0.644536
256000,-0.146046,-0.792481,9.390059,-2.523209,5.155058,0.186520
260000,-0.162806,-0.845153,9.485827,-1.759850,4.926051,0.308658
264000,-0.098162,-0.854730,9.481039,-0.324736,5.414600,-0.042487
268000,-0.074220,-0.905008,9.337387,0.606562,5.185593,-0.164625
272000,-0.126893,-0.900220,9.430760,1.827936,4.742845,-0.576838
276000,-0.136469,-0.876278,9.267955,2.881371,4.605440,-1.050121
280000,-0.234632,-0.885855,9.155427,3.369921,3.781013,-1.279129
284000,-0.373495,-0.866701,8.987833,3.919539,2.926050,-1.447067
288000,-0.469264,-0.857124,8.868123,4.072211,1.994753,-1.447067
292000,-0.426168,-0.751779,8.657434,3.934806,1.002386,-1.447067
296000,-0.363919,-0.713472,8.623915,3.675264,0.819180,-1.538671
300000,-0.428562,-0.660800,8.657434,3.690531,1.918417,-1.416533
304000,-0.430956,-0.622492,8.530540,3.522592,3.139791,-1.172258
308000,-0.545878,-0.529119,8.094796,2.942440,3.781013,-0.973785
312000,-0.543484,-0.493206,8.049306,2.408089,4.483303,-0.683709
316000,-0.596156,-0.509965,7.958326,1.843203,5.216127,-0.393632
320000,-0.596156,-0.433351,7.781156,0.942440,5.918417,0.064383
324000,-0.651223,-0.366313,7.833828,-0.080461,5.796279,0.690337
328000,-0.591368,-0.404620,7.807492,-1.164430,5.506203,0.888810
332000,-0.591368,-0.402226,7.967903,-1.820919,4.422234,1.056749
336000,-0.548272,-0.402226,8.329428,-1.958324,2.941318,1.453696
340000,-0.407014,-0.385466,8.604761,-1.423972,2.025287,1.117818
344000,-0.344765,-0.395043,8.827422,-0.920156,1.429867,1.102551
348000,-0.193930,-0.435745,8.966286,-0.095728,0.651241,0.247589
352000,-0.153229,-0.531513,9.093178,0.743966,0.605440,-0.271495
356000,-0.191536,-0.466869,8.908825,1.171447,0.697043,-0.973785
360000,-0.184354,-0.521936,8.923190,1.583661,0.513837,-1.233327
364000,-0.213084,-0.569820,8.908825,1.629462,0.376432,-1.691342
368000,-0.251391,-0.622492,9.006987,1.492058,0.254295,-1.889816
372000,-0.201113,-0.648829,9.095572,1.904272,0.742844,-2.179892
376000,-0.328006,-0.766145,8.844181,1.843203,1.979486,-2.286762
380000,-0.263362,-0.725443,8.892065,1.507325,3.231394,-2.439434
384000,-0.313640,-0.818817,9.038112,1.400455,4.697043,-2.424167
388000,-0.320823,-0.878672,9.208099,1.843203,7.048188,-2.195159
392000,-0.421380,-0.950498,9.337387,2.560760,8.529103,-2.134090
396000,-0.548272,-0.960075,9.344569,3.201982,8.864982,-2.210426
400000,-0.744597,-0.998382,9.258378,3.476791,9.017653,-1.691342
404000,-0.806846,-1.039083,9.227253,4.301219,9.063455,-1.477602
408000,-0.761356,-0.991199,9.323022,4.988241,8.345898,-0.836380
412000,-0.849942,-1.074997,9.344569,5.598928,7.490936,-0.210426
416000,-0.766145,-1.036689,9.337387,6.347020,6.758111,0.323925
420000,-0.792481,-0.986411,9.244013,6.774501,6.300097,0.491864
424000,-0.792481,-1.043872,9.097966,7.629462,5.796279,0.965146
428000,-0.725443,-1.055843,9.026140,7.354653,4.849715,1.545299
432000,-0.727837,-0.991199,9.002198,7.812669,4.727577,1.697971
436000,-0.598550,-0.955287,8.963891,7.263050,4.452768,2.476597
440000,-0.541090,-0.873884,8.889671,6.606562,4.132157,2.598734
444000,-0.387861,-0.861913,8.925584,6.179081,4.330631,2.659803
448000,-0.296881,-0.811634,8.968679,6.148546,4.193226,2.598734
452000,-0.272939,-0.730232,9.009381,6.377554,4.086356,2.522398
456000,-0.304064,-0.675165,8.937555,6.240149,4.513837,2.568200
460000,-0.263362,-0.665588,8.825027,6.148546,4.406967,2.766673
464000,-0.162806,-0.586579,8.920795,5.934806,3.994753,2.430795
468000,-0.110133,-0.598550,8.980651,5.873737,3.384066,2.247589
472000,-0.059855,-0.574608,9.097966,6.331753,2.208493,2.018581
476000,-0.026336,-0.464475,9.064447,6.957707,1.475669,1.453696
480000,-0.040701,-0.464475,9.155427,7.934806,1.139791,1.041482
484000,-0.040701,-0.411803,9.179369,8.835569,1.032921,0.507131
488000,-0.148441,-0.399832,9.033323,9.537860,0.712310,0.140719
492000,-0.268151,-0.426168,8.916007,9.995874,0.284829,-0.027220
496000,-0.251391,-0.387861,8.896853,10.423356,-0.051049,-0.393632
500000,-0.337582,-0.368707,8.789114,10.652364,-0.661736,-0.302029
504000,-0.308852,-0.361524,8.681376,10.270684,-1.837308,-0.744777
508000,-0.409408,-0.359130,8.535329,9.644730,-2.661736,-0.912716
512000,-0.462081,-0.335188,8.485051,8.942440,-3.425095,-0.851648
516000,-0.667982,-0.359130,8.784326,8.347020,-3.623568,-0.683709
520000,-0.718261,-0.452504,9.133880,7.675264,-2.844942,0.186520
524000,-0.720655,-0.596156,9.370906,8.056944,0.177959,1.209421
528000,-0.790087,-0.521936,9.411607,8.331753,3.078722,2.003314
532000,-0.792481,-0.586579,9.402030,8.881371,5.475669,2.934612
536000,-0.708684,-0.591368,9.351752,9.522593,8.040554,3.865910
540000,-0.790087,-0.569820,9.500193,10.072210,10.712310,4.843009
544000,-0.847547,-0.672771,9.423578,10.530226,12.620707,5.468963
548000,-0.876278,-0.591368,9.354146,10.850837,14.651241,6.491864
552000,-0.881066,-0.656011,9.244013,11.659997,15.139791,7.591100
556000,-0.828394,-0.586579,9.212888,12.179081,14.345898,8.064383
560000,-0.679953,-0.557849,9.277532,12.957706,12.498569,8.079650
564000,-0.617704,-0.596156,9.634268,14.301218,10.803913,7.865910
568000,-0.430956,-0.622492,9.737218,16.270683,8.406966,7.362093
572000,-0.205901,-0.536301,10.060435,18.682898,6.422234,6.278123
576000,-0.105345,-0.512359,10.105926,21.186716,4.315363,4.980413
580000,-0.203507,-0.531513,10.168175,23.782135,2.010020,3.392627
584000,-0.287304,-0.593762,10.098742,25.995876,0.605440,2.384994
588000,-0.514753,-0.593762,9.876082,27.629463,-1.150285,1.759039
592000,-0.696713,-0.593762,9.612720,28.652365,-2.677003,1.591100
596000,-0.792481,-0.567426,9.387665,29.156181,-5.058682,1.697971
600000,-0.679953,-0.519542,9.406818,29.415724,-5.898377,1.560566
604000,-0.737414,-0.493206,9.272743,29.324120,-7.272423,1.682703
608000,-0.802058,-0.524330,9.205706,28.988241,-6.844942,1.743772
612000,-0.857124,-0.507571,9.287108,28.637096,-4.539598,2.339192
616000,-0.871489,-0.521936,9.337387,27.675264,-2.264789,3.560566
620000,-0.914585,-0.526724,9.358934,27.995876,-1.058682,4.415528
624000,-0.900220,-0.457293,9.454702,28.194349,0.559638,5.148353
628000,-0.792481,-0.478840,9.512163,27.904272,1.032921,5.774307
632000,-0.814029,-0.418985,9.888053,28.621830,0.544371,6.110185
636000,-0.641646,-0.560243,10.582372,31.446257,1.155058,6.598734
640000,-0.617704,-0.648829,11.101913,35.095112,3.155058,6.705605
644000,-0.548272,-0.627281,11.367670,39.339386,5.155058,7.041482
648000,-0.756568,-0.675165,10.915166,44.957706,5.109257,6.904078
652000,-1.022324,-0.603339,10.632649,48.133282,2.880249,6.980413
656000,-1.036689,-0.543484,10.817003,51.400455,0.895516,7.652170
660000,-1.019930,-0.529119,10.931925,55.324120,-1.302957,8.140718
664000,-0.826000,-0.471658,10.886436,59.171448,-4.890743,8.201787
668000,-0.653617,-0.433351,10.778696,62.850838,-6.631201,7.865910
672000,-0.521936,-0.378284,11.015722,66.484421,-6.967079,7.346826
676000,-0.174777,-0.308852,10.852917,72.698166,-5.440361,6.919345
680000,-0.102951,-0.143652,10.608707,75.995872,-6.005247,6.308658
684000,-0.095768,-0.184354,10.769119,80.285950,-6.280056,4.995681
688000,-0.117316,-0.069432,10.637438,84.438622,-5.501431,4.201787
692000,-0.131681,-0.079009,10.390836,88.972977,-3.562499,3.636902
696000,-0.390255,0.136469,9.866506,92.224884,-0.173186,3.743773
700000,-0.512359,0.409408,9.234436,88.194351,-1.638835,2.736139
704000,-0.299275,0.337582,9.392453,86.347023,-2.310591,1.789574
708000,-0.404620,0.435745,9.270349,85.263054,-0.738072,1.530032
712000,-0.328006,0.550666,8.772355,82.087479,-0.570133,1.194154
716000,-0.165200,0.610521,8.961497,80.637100,-1.012881,0.171253
720000,0.138864,0.715866,9.241618,80.682899,-0.738072,-0.912716
724000,0.268151,0.737414,9.653421,81.766869,-1.058682,-2.973785
728000,0.296881,0.694318,9.981427,83.095116,-0.020514,-4.469968
732000,0.172383,0.627281,10.575189,85.110382,-0.524331,-5.752411
736000,0.172383,0.567426,11.348516,89.797401,-0.096850,-7.111189
740000,0.280122,0.591368,11.681310,94.377556,2.406966,-8.210426
744000,0.074220,0.435745,11.901577,98.133278,6.513837,-9.233328
748000,-0.172383,0.366313,12.133814,104.957710,5.826814,-9.599740
752000,-0.155623,0.339977,12.265495,110.698166,6.498569,-10.179893
756000,-0.349553,0.433351,12.464214,114.896637,11.490935,-9.874549
760000,-0.201113,0.169988,12.466608,123.919540,15.384066,-9.248594
764000,-0.371101,0.383072,11.944673,132.514954,17.948952,-8.378366
768000,0.780510,0.409408,11.185710,137.247772,22.727577,-9.477602
772000,-2.873042,0.260968,9.543288,141.308838,30.193226,-3.920350
776000,-0.751779,0.727837,9.821015,147.354645,12.742844,-3.798213
780000,-0.916979,0.603339,9.481039,147.140900,21.185593,-1.782945
784000,-1.608904,0.988805,8.257602,141.507324,24.574905,-0.027220
788000,-1.534683,1.127669,7.745243,137.293579,20.697042,2.079650
792000,-1.055843,1.367089,7.706935,134.056931,20.742844,3.514765
796000,-1.130063,1.594538,7.599196,130.347015,21.002386,4.751406
800000,-0.866701,1.575385,7.802703,126.820305,17.261929,4.873543
804000,-0.768539,1.604115,8.202535,123.446259,17.200859,4.995681
808000,-0.672771,1.644817,8.942344,120.453888,19.719944,5.743773
812000,-0.330400,1.549049,10.414778,121.889008,24.849714,6.262856
816000,0.505177,1.395820,12.239159,128.209610,35.689407,6.186521
820000,3.442862,2.070984,10.898406,125.492058,76.468040,6.201787
824000,-0.411803,0.749385,15.452178,151.293579,41.353531,1.942245
828000,2.245761,1.127669,16.615759,164.698151,59.063454,-0.561571
832000,1.072602,0.524330,17.120935,185.201981,74.071091,-2.927984
836000,0.708684,0.629675,16.101006,200.469147,78.361168,-6.027220
840000,0.742203,0.308852,15.902287,213.324112,89.322998,-7.050121
844000,0.122104,0.229843,15.231912,226.331741,100.284836,-7.752411
848000,-0.864307,0.141258,14.168885,237.430984,101.628342,-7.508136
852000,-1.345541,0.162806,13.043611,247.003494,98.803917,-6.042487
856000,-1.692701,0.311246,11.690886,254.072205,97.185593,-3.218060
860000,-2.217031,0.596156,10.247183,257.858459,92.284836,-0.286762
864000,-2.346318,0.890643,8.789114,259.217255,86.193230,2.873543
868000,-2.346318,1.407791,7.357382,256.789764,81.903152,5.468963
872000,-2.741361,1.769315,6.675035,251.751587,74.864983,8.446062
876000,-2.516306,1.975216,7.144298,248.453888,69.170326,12.400260
880000,-2.212242,2.037466,7.723695,247.629456,67.445137,15.438428
884000,-1.968034,2.173935,8.255207,248.759232,63.506203,17.682705
888000,-1.283292,2.207454,9.047688,251.507324,66.193230,19.652170
892000,-1.268927,2.494758,8.791509,252.652359,69.399338,19.865910
896000,-1.431733,2.511518,8.774749,254.148544,66.498573,19.850643
900000,-1.510741,2.446874,9.181764,256.759247,65.735214,20.140718
904000,-1.836353,2.274492,9.562442,259.247772,66.406967,21.072018
908000,-2.047042,2.511518,9.239224,260.774506,69.216133,22.415529
912000,-2.363077,2.480393,8.341399,265.400452,69.292465,24.598734
916000,-2.614468,2.681506,7.486669,268.209625,69.429871,26.781940
920000,-2.722207,2.877831,7.101202,269.278320,68.864983,29.804842
924000,-2.954445,2.990358,7.187394,269.660004,65.781013,32.476597
928000,-2.669535,3.160346,7.216124,270.698181,66.819183,36.003315
932000,-2.688689,3.457227,5.913678,270.988251,69.460403,39.026215
936000,-2.748544,4.204218,4.338294,263.629486,65.246666,40.598736
940000,-2.375048,4.400543,3.813963,255.888992,71.735214,43.484230
944000,-2.695871,4.709395,3.019088,248.102737,74.208496,46.446064
948000,-2.458845,4.958392,3.390190,238.453888,76.269562,50.155987
952000,-1.934515,5.082890,3.476381,234.728699,89.582542,53.835377
956000,-1.999158,5.521029,2.001553,230.453888,96.666512,56.766674
960000,-2.073379,5.983110,0.569820,223.812668,93.170326,58.812473
964000,-1.733402,6.260838,0.536301,216.530212,93.414604,60.384995
968000,-1.656788,6.543353,0.787692,210.713425,91.246666,61.560566
972000,-1.127669,6.842628,0.902614,205.736328,85.826820,61.209423
976000,-0.713472,7.206547,1.043872,200.072205,81.872620,59.804840
980000,-0.004788,7.453150,1.173159,195.400452,83.399338,57.759041
984000,0.289698,7.766790,0.931344,189.644730,83.490936,54.430798
988000,0.572214,8.051701,0.605733,183.782135,82.147430,50.308659
992000,0.864307,8.262390,0.337582,177.339386,80.254295,45.224689
996000,0.737414,8.552089,-0.172383,169.430984,78.116890,40.003315
1000000,0.653617,8.746018,-0.746991,160.270676,73.964218,35.178886
1004000,0.514753,8.889671,-1.484405,151.430984,69.032921,30.186522
1008000,0.193930,9.018958,-1.956063,143.583649,64.758118,25.484230
1012000,-0.028730,8.956709,-2.236184,135.736328,60.315365,21.514765
1016000,-0.397437,8.877700,-2.185906,127.492058,56.223759,18.598734
1020000,-0.744597,8.580819,-1.103727,118.728699,52.254295,16.446062
1024000,-0.893037,8.221688,0.033519,112.957710,52.605438,15.392627
1028000,-1.194707,7.931990,0.835576,108.530228,52.071087,14.583467
1032000,-1.592144,7.685388,1.221043,105.629463,50.941319,14.217054
1036000,-1.946486,7.465121,1.570596,106.316483,49.735210,15.407894
1040000,-2.324770,7.328651,1.666364,108.591293,47.674141,16.797209
1044000,-2.573767,7.354988,1.285686,109.324120,44.025288,18.598734
1048000,-2.758120,7.374141,1.012747,109.110382,40.086357,20.949881
1052000,-2.798822,7.424419,0.775721,108.011139,37.002384,23.407894
1056000,-2.688689,7.587225,0.339977,106.194351,35.246662,26.064383
1060000,-2.552219,7.797915,-0.320823,103.263054,33.353531,28.201788
1064000,-2.238579,8.020576,-1.132457,99.018776,29.857347,29.804842
1068000,-1.855506,8.157045,-1.551443,95.324120,27.857347,30.644537
1072000,-1.335965,8.348581,-1.848324,90.224884,25.155058,30.278124
1076000,-0.859518,8.585608,-1.532289,85.217247,23.994753,29.194155
1080000,-0.457293,8.657434,-1.556231,81.156181,22.391699,26.705605
1084000,-0.172383,8.736442,-1.240196,75.995872,20.116890,23.468964
1088000,0.079009,8.705317,-0.644040,72.102745,19.292461,19.972780
1092000,-0.102951,8.640674,-0.043096,67.568390,18.376432,16.323925
1096000,-0.162806,8.494628,0.605733,65.095108,19.338264,13.499497
1100000,-0.330400,8.360553,0.610521,65.263046,20.345898,11.010947
1104000,-0.454898,8.310274,0.296881,64.133278,18.864981,8.507131
1108000,-0.677559,8.327033,0.026336,62.423355,18.910784,6.629269
1112000,-1.108515,8.307879,0.071826,59.766869,18.208492,5.652169
1116000,-1.338359,8.322245,0.146046,59.156181,19.567272,5.377360
1120000,-1.577779,8.324639,-0.349553,57.827938,21.292461,5.560566
1124000,-1.742979,8.391677,-0.852336,56.255417,22.055820,6.171253
1128000,-2.109292,8.489840,-1.094150,53.568394,20.941317,6.354459
1132000,-2.006341,8.465898,-1.144428,51.415722,19.139790,7.087284
1136000,-2.109292,8.564059,-0.763750,48.972973,17.536737,7.728505
1140000,-1.948880,8.609550,-0.744597,46.499691,17.857347,8.201787
1144000,-2.006341,8.537724,-0.639252,43.018776,15.842081,8.247588
1148000,-2.195483,8.422802,0.162806,40.209618,14.513836,8.797207
1152000,-1.987187,8.346188,0.876278,41.186714,16.315363,9.560566
1156000,-2.027889,8.439561,0.957681,41.934807,15.979485,9.652169
1160000,-1.891419,8.434772,0.660800,42.530228,14.788646,9.545299
1164000,-2.035071,8.494628,0.519542,42.789768,13.384066,9.407894
1168000,-2.363077,8.542512,0.292093,42.056946,13.048187,10.079650
1172000,-2.296039,8.731653,-0.186748,41.079845,12.849714,11.178886
1176000,-2.188300,8.834604,-1.031901,37.843204,12.559638,11.606367
1180000,-1.924938,8.935161,-1.510741,35.156181,10.819180,11.774306
1184000,-1.790863,8.973468,-1.659182,31.797401,8.864982,11.743772
1188000,-1.580173,9.030929,-1.644817,28.072212,9.155058,11.423162
1192000,-1.369483,9.124303,-1.529895,24.148548,8.926050,10.644535
1196000,-0.866701,9.112331,-1.237802,19.950073,10.055821,8.888810
1200000,-0.632069,8.973468,-1.156399,17.690531,11.048187,7.407895
1204000,-0.596156,8.916007,-0.591368,14.652363,9.842080,5.178887
1208000,-0.529119,8.825027,0.284910,15.217249,11.155058,3.850643
1212000,-0.478840,8.767567,0.457293,17.690531,16.055820,3.010948
1216000,-0.730232,8.767567,-0.423774,18.209616,17.124523,1.957513
1220000,-0.878672,8.707711,-0.727837,16.927174,16.620707,0.873543
1224000,-1.666364,8.499416,-0.093374,14.316485,17.399332,1.713238
1228000,-2.099715,8.255207,0.399832,14.698165,18.697042,3.957513
1232000,-2.355895,8.243237,0.011971,13.827935,17.811546,6.644536
1236000,-2.566584,8.310274,-0.481235,13.430989,13.948951,9.774306
1240000,-2.509123,8.525752,-0.792481,12.377554,8.086355,11.667436
1244000,-2.224213,8.523358,-0.375890,13.324119,7.918417,14.446062
1248000,-1.673547,8.719683,-0.497994,12.866103,7.628340,15.423162
1252000,-0.794875,9.069236,-0.646434,10.789768,7.384066,15.255222
1256000,-0.349553,9.323022,-0.749385,9.201982,7.765746,13.865910
1260000,-0.086191,9.528923,-0.938527,8.530226,4.376432,11.468963
1264000,0.311246,9.682152,-0.577003,6.881371,2.529104,8.552932
1268000,0.349553,9.799467,-0.622492,6.285951,2.361165,5.102551
1272000,0.272939,9.878476,-0.799663,4.591295,1.246661,1.896444
1276000,0.160412,9.852140,-0.924162,2.682898,0.193226,-1.019587
1280000,-0.043096,9.801862,-0.837971,-0.065194,-1.760972,-3.752411
1284000,-0.497994,9.569624,0.119710,-2.141530,-4.035782,-5.370731
1288000,-0.663194,9.339781,1.144428,-0.935423,-2.753339,-5.844014
1292000,-0.945710,9.263166,1.249773,0.453890,-2.402194,-5.935617
1296000,-1.177947,9.270349,1.065420,2.011142,-3.806774,-6.134090
1300000,-1.273715,9.198523,1.125275,4.408089,-3.089217,-5.767678
1304000,-1.410185,9.212888,0.926556,5.843203,-2.447995,-5.706609
1308000,-1.970428,9.323022,0.852336,5.400455,-3.623568,-4.592105
1312000,-2.102109,9.224859,1.010353,5.324119,-2.386927,-2.805846
1316000,-2.121263,9.301474,0.809240,5.232516,0.010020,-1.385999
1320000,-2.190695,9.279925,0.248997,3.950073,0.101623,-0.256228
1324000,-2.322376,9.277532,0.471658,3.095111,-1.684637,0.705604
1328000,-2.238579,9.289502,0.976834,3.919539,-2.524331,1.820108
1332000,-1.920150,9.251195,0.914585,4.866104,-1.104484,2.675070
1336000,-1.690306,9.442732,0.756568,3.537859,-2.280056,1.850642
1340000,-1.692701,9.378088,1.953669,1.461524,-3.913644,0.965146
1344000,-1.642422,9.279925,1.917756,4.240149,5.979486,1.911711
1348000,-1.922544,9.598354,0.581791,3.553127,1.658875,0.614001
1352000,-1.982399,9.459491,1.199495,2.942440,0.788646,0.995681
1356000,-1.898602,9.481039,1.417367,5.919539,5.185593,1.285757
1360000,-2.257732,9.461885,1.000776,7.003509,4.483303,1.682703
1364000,-2.415750,9.514558,0.514753,7.293585,5.307730,2.766673
1368000,-2.549825,9.538500,0.260968,5.873737,5.643608,3.820108
1372000,-2.633622,9.526528,0.421380,4.392821,5.842081,5.148353
1376000,-2.549825,9.485827,0.466869,4.179081,6.147425,5.988047
1380000,-2.353500,9.509769,0.500388,3.919539,5.475669,7.117818
1384000,-1.910573,9.579201,0.335188,3.064577,8.422234,7.575834
1388000,-1.568202,9.758766,-0.002394,2.499691,9.384066,6.934612
1392000,-1.357512,9.849746,-0.363919,1.904272,9.933683,5.957513
1396000,-0.957681,10.014946,-0.833182,-0.217866,9.674142,4.293391
1400000,-0.524330,10.134656,-1.199495,-3.790385,9.735210,1.377360
1404000,-0.430956,10.199299,-1.367089,-7.210233,8.574905,-1.538671
1408000,-0.557849,9.931149,-0.715866,-8.843820,6.345898,-3.798213
1412000,-0.749385,9.768343,-0.378284,-8.630079,4.452768,-5.767678
1416000,-0.907402,9.581595,-0.090980,-9.271301,1.048188,-7.599739
1420000,-1.007959,9.471462,0.239420,-8.584278,-0.722805,-9.218060
1424000,-1.292869,9.447520,0.407014,-8.492675,-2.112118,-10.210426
1428000,-1.462857,9.385271,0.548272,-8.431606,-3.684637,-10.561572
1432000,-1.640028,9.332599,0.725443,-7.271301,-4.280056,-10.592106
1436000,-1.936909,9.332599,0.457293,-6.981225,-5.822041,-10.103557
1440000,-2.212242,9.382876,0.172383,-7.423973,-6.967079,-9.523404
1444000,-2.358289,9.284714,0.201113,-7.668247,-7.822041,-8.256227
1448000,-2.473210,9.344569,0.193930,-9.332370,-8.325858,-6.989052
1452000,-2.257732,9.414001,0.203507,-10.217866,-6.554865,-5.874548
1456000,-2.193089,9.533711,-0.007183,-11.805653,-5.455629,-4.836380
1460000,-1.999158,9.562442,-0.141258,-13.576644,-4.875476,-4.469968
1464000,-1.752556,9.552865,0.244209,-14.584277,-3.760972,-4.546304
1468000,-1.697489,9.313444,1.266533,-13.836186,-1.852576,-4.637907
1472000,-1.853112,9.119514,2.013524,-11.591911,1.414600,-4.454701
1476000,-2.085350,9.035717,2.384625,-7.332370,2.239028,-4.408900
1480000,-2.214637,9.052477,2.243367,-3.973591,2.284829,-4.225693
1484000,-2.398990,9.076419,1.999158,-1.057560,2.559638,-3.615006
1488000,-2.545036,9.275137,1.446098,0.469157,2.315363,-3.401266
1492000,-2.485181,9.449914,0.962469,0.209615,1.689409,-2.744777
1496000,-2.461239,9.574412,0.450110,-0.767484,0.956585,-2.393632
1500000,-2.602497,9.653421,0.210690,-2.569010,-0.112117,-2.195159
1504000,-2.422932,9.603143,0.323217,-3.469774,-0.921278,-1.844014
1508000,-2.276886,9.569624,0.469264,-3.744583,-0.783873,-1.294396
1512000,-2.142811,9.504981,0.541090,-3.927789,0.010020,-1.630274
1516000,-1.987187,9.555259,0.636858,-3.836186,1.399333,-1.859281
1520000,-1.841141,9.560047,0.663194,-4.095729,2.468035,-2.454701
1524000,-1.556231,9.715671,0.569820,-5.271301,3.918417,-3.721877
1528000,-1.359907,9.770737,0.179565,-6.614813,5.674142,-4.897449
1532000,-1.204283,9.856929,-0.265756,-8.828553,6.712310,-6.408899
1536000,-1.144428,9.801862,-0.612916,-11.988858,8.010019,-8.256227
1540000,-1.237802,9.679757,-0.462081,-16.324736,7.399333,-10.302030
1544000,-1.857901,9.205706,0.402226,-16.614811,4.223761,-10.500503
1548000,-2.530671,8.930372,0.890643,-15.194964,-0.249522,-9.721877
1552000,-2.719813,8.757990,1.575385,-12.889621,-3.883110,-8.439434
1556000,-2.978387,8.657434,2.032677,-9.912522,-5.165553,-6.408899
1560000,-3.179500,8.552089,2.334347,-6.645347,-5.287690,-4.042487
1564000,-3.165135,8.762778,2.219425,-4.248401,-5.333491,-1.874548
1568000,-2.899378,8.913613,2.310405,-2.401072,-3.089217,0.049116
1572000,-2.786851,8.995016,2.506729,-0.431606,-0.615934,1.377360
1576000,-2.559402,9.121908,2.099715,1.843203,2.147424,2.476597
1580000,-2.348712,9.409213,1.448492,2.469157,4.101623,2.934612
1584000,-2.171541,9.457097,1.228225,2.560760,6.666509,2.827742
1588000,-2.188300,9.591172,1.058237,2.484425,9.078722,3.041482
1592000,-2.013524,9.701305,1.108515,1.812669,11.246661,3.010948
1596000,-2.003947,9.689334,0.897826,1.064577,13.200859,2.522398
1600000,-1.872266,9.816227,0.785298,0.240150,13.689409,1.988047
1604000,-1.752556,9.737218,0.617704,-0.523209,13.231394,1.117818
1608000,-1.580173,9.821015,0.543484,-1.698782,12.910783,-0.057755
1612000,-1.467646,9.809045,0.488417,-2.950690,12.391699,-1.080655
1616000,-1.323994,9.746795,0.667982,-3.652980,12.040554,-2.256228
1620000,-1.450886,9.579201,0.624887,-2.996492,11.322997,-3.294396
1624000,-1.367089,9.490616,0.529119,-2.507942,9.307730,-4.134090
1628000,-1.458069,9.564836,0.445322,-2.874354,7.811547,-5.095922
1632000,-1.460463,9.469068,0.445322,-2.843820,7.643608,-5.615006
1636000,-1.628057,9.476251,0.160412,-3.362904,6.147425,-6.118823
1640000,-1.731008,9.452309,-0.093374,-5.149163,4.040555,-6.454701
1644000,-1.814805,9.390059,-0.158017,-6.584278,3.307730,-5.889815
1648000,-1.910573,9.349358,-0.062249,-7.103362,1.903150,-5.844014
1652000,-2.013524,9.126697,0.402226,-7.423973,-0.417461,-5.263861
1656000,-2.229002,8.992621,0.790087,-7.698782,-1.669369,-4.302029
1660000,-2.379837,8.868123,1.599327,-7.561378,-1.730438,-3.065388
1664000,-2.315193,8.927979,1.817199,-6.309469,-1.287690,-1.569205
1668000,-2.444480,8.887277,1.908179,-5.057561,-1.028148,-0.271495
1672000,-2.394202,8.884883,2.109292,-3.149163,-1.012881,1.056749
1676000,-2.387019,8.983045,2.066196,-0.950690,0.239028,2.247589
1680000,-2.205060,9.145850,1.841141,0.438623,1.735211,3.362093
1684000,-2.104503,9.315839,1.455675,0.896638,3.048188,3.835375
1688000,-1.953669,9.521740,1.029507,0.301218,4.712310,4.262856
1692000,-1.891419,9.610326,0.677559,-0.645346,5.658875,4.155986
1696000,-1.769315,9.868899,0.378284,-2.965957,5.903150,3.560566
1700000,-1.625663,9.888053,0.251391,-5.286569,5.735211,2.934612
1704000,-1.532289,9.909601,0.260968,-7.546110,6.391699,1.606368
1708000,-1.527501,9.799467,0.351948,-9.317102,6.284829,0.812474
1712000,-1.549049,9.651027,0.464475,-10.049927,5.719944,-0.347831
1716000,-1.707066,9.552865,0.902614,-10.431606,4.254295,-1.385999
1720000,-1.814805,9.543288,1.096544,-10.752217,3.078722,-2.149358
1724000,-1.970428,9.308656,1.266533,-9.729317,2.300096,-2.302029
1728000,-1.941698,9.181764,1.391031,-8.843820,2.223760,-2.469968
1732000,-1.912967,9.378088,1.206678,-9.286569,1.277195,-3.279129
1736000,-2.540248,9.184157,0.217872,-8.507942,-4.081583,-2.271495
1740000,-2.037466,9.011775,1.826776,-8.920156,-5.257155,-1.187526
1744000,-2.066196,9.095572,1.819593,-5.912522,-0.478530,-0.103556
1748000,-2.343924,9.071630,1.185130,-5.011759,0.284829,1.285757
1752000,-2.044648,9.078813,0.833182,-4.507942,0.437501,2.079650
1756000,-1.896208,9.141062,1.029507,-4.630079,3.475669,3.056749
1760000,-1.855506,9.215282,1.134852,-4.660614,4.926051,3.438429
1764000,-1.845930,9.275137,1.010353,-5.103362,4.284829,3.881177
1768000,-1.699883,9.267955,0.916979,-5.439240,3.964219,3.881177
1772000,-1.668759,9.356541,0.952892,-5.912522,3.521470,4.033849
1776000,-1.604115,9.382876,0.785298,-6.187331,2.895516,3.713238
1780000,-1.465251,9.332599,0.972046,-5.820919,2.361165,3.636902
1784000,-1.596933,9.382876,0.998382,-6.034659,1.567272,2.965146
1788000,-1.604115,9.402030,0.955287,-6.675881,0.574905,2.843009
1792000,-1.685518,9.361329,1.082179,-7.072827,-1.226621,2.033848
1796000,-1.683124,9.373300,1.165976,-7.820919,-3.073950,1.591100
1800000,-1.630451,9.356541,1.307234,-7.744583,-3.715171,0.995681
1804000,-1.637634,9.325416,1.213860,-7.790385,-3.440362,0.766673
1808000,-1.630451,9.392453,1.134852,-8.095729,-4.051049,0.384994
1812000,-1.544260,9.414001,1.022324,-9.439240,-2.738072,0.033849
1816000,-1.649605,9.394848,0.967257,-10.507942,-2.310591,-0.378365
1820000,-1.771709,9.311050,1.201889,-11.164431,-2.295324,-0.225693
1824000,-1.900996,9.277532,1.225831,-11.027026,-3.547232,-0.164625
1828000,-1.903390,9.184157,1.582567,-10.019393,-3.867843,0.232322
1832000,-1.889025,9.172187,1.855506,-8.309469,-2.982346,0.446062
1836000,-2.039860,9.162610,1.884237,-6.324736,-2.325858,1.072016
1840000,-2.075773,9.155427,1.819593,-4.950690,-1.944179,1.484230
1844000,-2.078167,9.236830,1.781286,-5.042294,-0.463263,1.530032
1848000,-2.173935,9.232041,1.836353,-4.034659,-2.020514,1.682703
1852000,-2.044648,9.263166,1.671153,-2.507942,-0.707537,2.155986
1856000,-2.035071,9.366117,1.371878,-2.477408,-0.799140,2.018581
1860000,-2.078167,9.354146,1.285686,-2.675881,-0.799140,2.323925
1864000,-1.917756,9.497798,1.132457,-2.675881,-0.112117,2.354459
1868000,-1.843535,9.524135,0.931344,-3.332370,-0.218988,2.033848
1872000,-1.697489,9.567230,0.873884,-4.584278,0.926050,1.881177
1876000,-1.683124,9.430760,0.794875,-5.332370,1.842081,1.621635
1880000,-1.702277,9.442732,0.816423,-5.485042,1.735211,1.407894
1884000,-1.596933,9.414001,0.770933,-5.729317,1.261928,1.102551
1888000,-1.599327,9.387665,0.684742,-6.278934,1.048188,0.598734
1892000,-1.582567,9.289502,0.852336,-6.523210,-0.218988,0.461329
1896000,-1.556231,9.227253,0.916979,-6.553743,-1.623568,-0.118823
1900000,-1.623269,9.169792,1.165976,-6.569011,-1.699904,-0.011953
1904000,-1.740585,9.155427,1.333570,-6.019393,-1.638835,-0.011953
1908000,-1.814805,9.038112,1.211466,-5.469774,-2.692270,0.003314
1912000,-1.786075,9.090784,1.197101,-5.118629,-3.180820,0.186520
1916000,-1.723825,9.114726,1.209072,-4.889622,-2.982346,0.278123
1920000,-1.699883,9.196129,0.964863,-4.889622,-2.707537,0.247589
1924000,-1.762132,9.289502,0.833182,-5.881988,-2.982346,0.094917
1928000,-1.575385,9.325416,0.809240,-7.194965,-2.264789,-0.057755
1932000,-1.558625,9.320627,0.830788,-8.385805,-1.119751,-0.225693
1936000,-1.522712,9.330204,0.876278,-9.072827,-0.188453,-1.080655
1940000,-1.568202,9.260772,0.735020,-9.759851,0.391699,-1.172258
1944000,-1.620875,9.239224,0.600945,-10.736950,0.712310,-1.615006
1948000,-1.903390,9.272743,0.615310,-13.317103,-1.699904,-2.103556
1952000,-1.915361,9.212888,1.189918,-14.202600,-2.341125,-1.981419
1956000,-2.121263,9.117120,1.501164,-14.248401,-3.470896,-1.721877
1960000,-2.233790,9.057265,1.745373,-13.301835,-5.058682,-1.187526
1964000,-2.166753,9.047688,2.145205,-11.240767,-5.394560,-0.805846
1968000,-2.126051,9.030929,2.090138,-8.965958,-4.615934,-0.073022
1972000,-2.049437,9.059659,2.207454,-6.874354,-2.783873,0.384994
1976000,-1.912967,9.181764,2.037466,-5.088095,-0.921278,0.323925
1980000,-1.879448,9.229648,1.817199,-4.172065,0.483302,0.384994
1984000,-1.800440,9.476251,1.441309,-4.462141,2.025287,0.079650
1988000,-1.625663,9.318233,1.300052,-3.698782,3.979486,-0.118823
1992000,-1.654393,9.550470,0.814029,-4.614813,3.521470,-0.607373
1996000,-1.493982,9.550470,0.919373,-5.836186,3.216127,-1.309663
