time_us,ax,ay,az,gx,gy,gz
0,-0.155623,-2.166753,8.226477,0.881371,2.254295,0.675070
4000,-0.184354,-2.181118,8.276755,0.560760,1.857348,0.720871
8000,-0.203507,-2.200271,8.269572,0.118012,1.796279,0.339192
12000,-0.220267,-2.195483,8.274361,0.118012,1.384066,0.369726
16000,-0.213084,-2.233790,8.334216,-0.110996,0.681776,0.094917
20000,-0.263362,-2.217031,8.267179,-0.156797,0.345898,0.033849
24000,-0.237026,-2.212242,8.262390,-0.324736,0.177959,-0.179892
28000,-0.287304,-2.224213,8.300697,-0.263667,-0.020514,-0.393632
32000,-0.208296,-2.243367,8.324639,-0.782751,-0.051049,-0.393632
36000,-0.213084,-2.219425,8.248025,-1.133896,0.132157,-0.271495
40000,-0.292093,-2.197877,8.372523,-1.210232,-0.218988,-0.103556
44000,-0.225055,-2.240973,8.434772,-1.042293,-0.234255,-0.057755
48000,-0.222661,-2.221819,8.489840,-0.599545,0.132157,-0.073022
52000,-0.258574,-2.243367,8.425196,-0.156797,0.651241,0.003314
56000,-0.215478,-2.188300,8.398860,0.163814,0.880249,-0.011953
60000,-0.196325,-2.185906,8.312668,0.224882,1.048188,-0.347831
64000,-0.256180,-2.252944,8.322245,0.240150,1.002386,-0.286762
68000,-0.337582,-2.231396,8.204929,0.133279,0.574905,-0.469968
72000,-0.313640,-2.212242,8.214506,0.377554,-0.249522,-0.469968
76000,-0.423774,-2.260126,8.183381,0.576027,-0.631201,-0.118823
80000,-0.356736,-2.262521,8.149862,0.682898,-0.753339,-0.195159
84000,-0.325611,-2.226608,8.180987,0.713432,-0.738072,-0.302029
88000,-0.280122,-2.193089,8.276755,0.637096,-0.615934,-0.408900
92000,-0.301669,-2.231396,8.092402,0.087478,-0.661736,-0.668442
96000,-0.387861,-2.233790,8.058883,-0.340003,-0.463263,-0.454701
100000,-0.483629,-2.272097,8.154651,-0.721682,-0.967079,-0.531037
104000,-0.483629,-2.286463,8.056489,-1.347636,-1.241889,-0.500503
108000,-0.486023,-2.305616,8.190564,-1.927789,-1.669369,-0.607373
112000,-0.488417,-2.365471,8.180987,-2.370538,-1.959446,-0.454701
116000,-0.459687,-2.319981,8.214506,-2.965957,-2.142652,-0.225693
120000,-0.483629,-2.384625,8.377312,-3.408705,-2.127385,0.018581
124000,-0.428562,-2.377442,8.485051,-3.714049,-1.760972,0.140719
128000,-0.469264,-2.482787,8.734048,-4.065194,-1.974713,0.293391
132000,-0.440533,-2.485181,8.731653,-3.729316,-2.112118,0.384994
136000,-0.488417,-2.535460,8.803479,-3.362904,-1.287690,0.751406
140000,-0.481235,-2.573767,8.913613,-2.706415,-1.302957,1.163620
144000,-0.435745,-2.573767,8.908825,-2.126262,-1.089217,1.285757
148000,-0.459687,-2.621651,8.987833,-1.378171,-1.058682,1.484230
152000,-0.409408,-2.561796,8.980651,-0.843820,-0.982347,1.728505
156000,-0.328006,-2.573767,8.973468,0.011142,-1.211354,1.621635
160000,-0.344765,-2.628834,8.925584,0.606562,-1.119751,1.667436
164000,-0.316035,-2.588132,8.872911,1.308852,-1.165553,1.591100
168000,-0.234632,-2.561796,8.765172,1.308852,-0.570133,1.606368
172000,-0.239420,-2.547431,8.769960,1.369921,-0.493797,1.835375
176000,-0.248997,-2.511518,8.690952,1.308852,0.391699,1.636902
180000,-0.342371,-2.530671,8.602366,1.263050,0.697043,1.957513
184000,-0.318429,-2.521094,8.556877,1.171447,0.956585,2.018581
188000,-0.378284,-2.477999,8.640674,1.400455,1.002386,2.308658
192000,-0.289698,-2.533065,8.911219,2.148547,1.460402,2.995681
196000,-0.268151,-2.504335,9.002198,2.957707,2.773379,3.194154
200000,-0.232238,-2.485181,9.188946,3.995875,3.322997,3.148352
204000,-0.172383,-2.533065,9.085996,5.400455,3.521470,3.453696
208000,-0.158017,-2.413355,8.937555,6.301218,3.658875,3.285757
212000,-0.186748,-2.442086,8.822633,6.698165,3.277195,3.087284
216000,-0.162806,-2.482787,8.667010,7.217249,2.574905,2.827742
220000,-0.134075,-2.391808,8.573636,7.644730,1.521470,2.278123
224000,-0.119710,-2.398990,8.561666,7.598928,0.040554,1.957513
228000,-0.150835,-2.358289,8.370130,7.446257,-1.470896,1.255223
232000,-0.138864,-2.348712,8.449138,7.140913,-2.356392,0.980413
236000,-0.203507,-2.442086,8.458714,6.438623,-2.875476,0.675070
240000,-0.316035,-2.384625,8.611943,5.919539,-3.272423,1.072016
244000,-0.347159,-2.482787,8.913613,5.308852,-3.470896,1.377360
248000,-0.272939,-2.616863,9.284714,6.316485,-2.646469,1.926978
252000,-0.222661,-2.535460,9.425972,8.011142,-0.386927,2.583467
256000,-0.201113,-2.530671,9.442732,9.110378,1.857348,3.209421
260000,-0.301669,-2.480393,9.354146,9.995874,3.506203,3.530032
264000,-0.301669,-2.477999,9.313444,10.530226,4.529104,3.682703
268000,-0.354342,-2.509123,9.167398,10.942440,5.185593,4.140719
272000,-0.490811,-2.492364,9.076419,11.263050,5.567272,4.384994
276000,-0.411803,-2.454057,8.906430,11.675264,5.552005,4.751406
280000,-0.383072,-2.485181,8.825027,12.026409,5.032921,4.675070
284000,-0.280122,-2.387019,8.707711,11.797401,4.727577,4.614001
288000,-0.270545,-2.327164,8.738836,11.721066,4.513837,4.430795
292000,-0.215478,-2.346318,8.865729,11.812669,4.651241,4.247589
296000,-0.229843,-2.391808,8.872911,11.934806,5.002387,4.049116
300000,-0.335188,-2.324770,8.846576,11.827936,5.155058,3.896444
304000,-0.404620,-2.406173,8.753201,11.919538,4.712310,3.865910
308000,-0.495600,-2.389413,8.734048,12.499691,4.452768,4.155986
312000,-0.536301,-2.456451,8.990228,13.095111,4.574905,4.430795
316000,-0.521936,-2.403779,8.932767,13.583661,4.101623,4.675070
320000,-0.464475,-2.454057,8.999804,13.873737,4.269562,5.117818
324000,-0.392649,-2.470816,9.006987,14.270683,5.445135,5.499497
328000,-0.347159,-2.420538,9.148245,15.156180,6.208493,5.621635
332000,-0.423774,-2.434903,9.246407,15.919538,5.918417,5.239955
336000,-0.778116,-2.470816,9.069236,16.576027,5.185593,6.369727
340000,-0.383072,-2.420538,9.026140,17.537859,6.880249,7.148353
344000,-0.416591,-2.346318,8.896853,16.866104,6.040555,6.339192
348000,-0.375890,-2.473210,8.966286,16.698166,4.590173,6.278123
352000,-0.407014,-2.492364,8.757990,17.659998,6.513837,7.301024
356000,-0.411803,-2.370260,8.468291,17.705799,5.811547,6.873543
360000,-0.328006,-2.358289,8.571242,16.713432,4.239028,6.369727
364000,-0.316035,-2.439692,8.760384,16.179081,4.284829,6.552933
368000,-0.404620,-2.504335,8.769960,16.255417,4.345898,6.278123
372000,-0.521936,-2.480393,8.968679,16.591295,3.506203,6.766673
376000,-0.553061,-2.636016,9.323022,18.163815,2.895516,7.209421
380000,-0.502782,-2.561796,9.526528,19.919538,3.078722,7.545299
384000,-0.584185,-2.600103,9.732430,22.026409,3.842081,8.262856
388000,-0.773327,-2.729390,10.014946,24.316486,4.025287,8.797207
392000,-0.907402,-2.717419,10.290278,27.369921,3.781013,10.140718
396000,-0.849942,-2.698265,10.508151,31.263052,3.887883,11.407894
400000,-0.852336,-2.616863,10.548853,34.988239,4.590173,12.522398
404000,-0.679953,-2.557007,10.350134,38.179081,4.712310,13.331558
408000,-0.610521,-2.540248,10.232818,41.721066,4.437501,13.621634
412000,-0.782904,-2.595315,10.208876,46.163815,1.994753,14.644535
416000,0.014365,-2.212242,9.727641,48.774502,2.468035,13.606367
420000,-0.059855,-2.154782,9.375694,49.721066,1.933684,12.552932
424000,0.114922,-2.080561,9.045294,51.049309,-0.051049,11.133085
428000,0.213084,-2.013524,8.896853,52.056946,-3.623568,9.270490
432000,0.191536,-2.020706,8.860941,52.606564,-6.188453,7.636902
436000,0.014365,-1.934515,8.997410,53.583660,-7.364026,6.812475
440000,-0.071826,-1.910573,9.167398,54.133282,-8.234255,6.568200
444000,-0.222661,-1.984793,9.172187,55.003510,-8.371659,6.736139
448000,-0.043096,-1.977611,9.287108,55.125645,-6.661736,6.919345
452000,-0.088585,-1.939303,9.509769,55.873737,-6.661736,6.018581
456000,-0.335188,-1.848324,9.390059,56.056946,-4.722805,7.056749
460000,-0.462081,-1.857901,9.361329,56.637096,-3.318224,7.743772
464000,-0.440533,-1.917756,9.722853,58.041676,-3.241888,8.476596
468000,-0.407014,-1.877054,10.036493,60.133282,-1.669369,9.239955
472000,-0.380678,-1.788469,10.256760,61.812668,-0.402194,9.835375
476000,-0.397437,-1.798046,10.175357,63.889004,1.277195,10.262856
480000,-0.323217,-1.786075,10.098742,66.270683,1.445134,10.125451
484000,-0.306458,-1.654393,10.031705,68.224884,1.582539,9.743772
488000,-0.246603,-1.620875,10.046070,69.843201,1.704676,9.499497
492000,-0.193930,-1.687912,10.151415,72.240150,2.559638,9.056749
496000,-0.275333,-1.716643,10.196905,75.782135,2.681776,8.507131
500000,-0.481235,-1.640028,9.856929,78.423355,1.994753,8.491863
504000,-0.339977,-1.391031,9.258378,77.889008,3.689409,8.552932
508000,-0.622492,-1.618480,9.461885,79.766869,0.987119,8.720871
512000,-0.526724,-1.587356,9.840169,83.705803,3.964219,10.064383
516000,-0.500388,-1.134852,8.817844,82.988243,6.758111,10.232322
520000,-0.481235,-1.089362,8.983045,81.247787,1.887883,8.644535
524000,-0.507571,-1.158794,9.093178,82.056946,4.406967,9.331558
528000,-0.538695,-1.019930,8.932767,82.453888,6.468035,10.354459
532000,-0.447716,-0.861913,8.853758,82.118011,8.712310,10.491863
536000,-0.462081,-0.711078,8.635885,80.881371,7.948951,10.339191
540000,-0.454898,-0.658405,8.568848,79.507324,8.025287,10.232322
544000,-0.454898,-0.627281,8.279149,78.163811,10.574905,10.980413
548000,-0.488417,-0.524330,8.080431,76.240150,10.971851,11.041482
552000,-0.660800,-0.330400,7.941567,73.934807,10.391699,11.285756
556000,-0.591368,-0.366313,8.137892,71.889008,9.994752,11.560566
560000,-0.519542,-0.373495,8.128315,70.316483,10.498569,12.125451
564000,-0.466869,-0.299275,8.240842,69.553131,11.002386,12.461329
568000,-0.430956,-0.146046,8.264784,69.064575,12.132157,12.629268
572000,-0.509965,-0.131681,8.001422,67.675262,11.017653,12.491863
576000,-0.538695,-0.062249,8.125920,65.889000,10.300096,12.583467
580000,-0.581791,-0.201113,8.611943,66.179077,8.956584,12.659802
584000,-0.555455,-0.220267,9.076419,67.889000,10.376431,13.331558
588000,-0.677559,-0.100556,9.090784,68.972977,11.582539,13.804840
592000,-0.804452,-0.165200,8.973468,69.659996,10.697042,13.865910
596000,-0.857124,-0.162806,8.930372,70.911903,9.368798,14.094917
600000,-1.010353,-0.095768,8.990228,71.705803,8.010019,14.812474
604000,-0.986411,-0.129287,9.224859,73.201981,5.811547,15.560565
608000,-0.948104,-0.272939,9.811439,77.095116,3.750478,16.400261
612000,-0.548272,0.057461,9.387665,78.545494,8.971851,17.850643
616000,-0.627281,0.093374,9.011775,80.301216,8.193226,17.804842
620000,-0.684742,0.208296,8.736442,80.377556,4.040555,16.751406
624000,-0.646434,0.158017,8.860941,80.179085,1.918417,16.247589
628000,-0.814029,0.064643,9.040505,81.201981,1.322997,16.568201
632000,-1.055843,-0.126893,9.380483,83.995872,-0.814408,17.117819
636000,-0.763750,0.093374,8.750807,82.514961,1.185592,17.926979
640000,-1.031901,0.177171,8.523358,81.263054,-4.005247,18.049116
644000,-0.667982,0.112527,8.810662,81.980606,-2.722805,18.797209
648000,-0.878672,0.306458,8.789114,81.339386,-3.867843,18.812475
652000,-0.782904,0.318429,9.234436,80.988243,-2.280056,19.697971
656000,-0.715866,0.239420,9.694122,82.713432,0.941318,21.392628
660000,-0.524330,0.335188,10.240001,84.972977,5.475669,22.705605
664000,-0.488417,0.366313,10.785878,88.896637,8.681775,23.743773
668000,-0.292093,0.265756,11.841722,93.889008,9.628340,23.804842
672000,-0.569820,-0.186748,13.381193,103.308853,11.826814,24.369726
676000,-0.047884,-0.804452,14.168885,120.850838,28.132156,29.377361
680000,-0.830788,-0.208296,12.485762,134.530212,35.536736,31.514767
684000,-0.905008,0.043096,11.992557,155.522583,34.926048,32.415527
688000,-1.941698,0.826000,11.518504,147.278305,35.704678,33.468964
692000,-0.907402,0.198719,11.463438,147.247772,35.643608,33.163620
696000,-1.122881,0.304064,10.077195,150.270676,40.422234,34.552933
700000,-1.501164,0.531513,8.566454,151.293579,35.826813,34.827744
704000,-1.393425,0.773327,7.702147,149.797394,30.223761,35.346825
708000,-1.343147,1.091756,6.821081,147.782135,24.849714,35.759041
712000,-1.359907,1.412579,6.145916,144.179077,15.918417,35.194153
716000,-1.130063,1.738190,5.951985,138.621826,11.170325,35.270489
720000,-0.988805,1.934515,5.916072,132.728699,7.994752,35.056751
724000,-0.723049,2.161964,5.846641,126.637100,6.498569,35.377361
728000,-0.335188,2.418144,5.923255,120.560760,9.719943,35.697971
732000,-0.251391,2.382231,6.732495,116.011139,9.796279,35.072018
736000,0.124498,2.499547,8.240842,113.919540,12.391699,35.468964
740000,0.330400,2.171541,9.804255,117.415726,17.933683,36.155987
744000,0.835576,2.226608,10.062830,127.110382,30.101622,35.438431
748000,0.330400,2.619257,9.394848,128.102737,28.681776,32.415527
752000,0.191536,2.497152,9.967062,130.362289,28.147425,30.339193
756000,-0.553061,2.035071,11.006145,138.652359,29.658875,30.629269
760000,-0.478840,2.171541,9.940725,144.621826,42.910782,32.781940
764000,-1.221043,2.217031,9.282320,152.331741,37.368797,32.186520
768000,-1.359907,2.358289,8.027759,170.194336,43.719944,32.904079
772000,-1.458069,2.715025,7.376535,153.675262,26.025288,31.774307
776000,-1.426944,2.844312,6.780379,154.560760,28.483301,33.224689
780000,-1.482011,2.813187,6.272809,151.782135,25.170324,33.484230
784000,-1.074997,2.856283,6.402095,150.972961,27.613073,34.812473
788000,-1.142034,2.971204,6.279991,150.560760,30.605440,36.171253
792000,-0.972046,3.234566,6.399701,149.873734,31.155058,37.575832
796000,-1.154005,3.481169,6.215348,148.377548,24.773378,37.285759
800000,-0.452504,3.643975,6.545747,149.079834,22.559637,37.010948
804000,-0.361524,3.835511,6.406884,146.438614,25.307730,36.705605
808000,-0.313640,3.840300,6.749255,143.736328,29.674141,37.178886
812000,-0.090980,3.801992,7.481880,144.499680,35.261929,37.041481
816000,0.289698,3.742137,8.214506,147.797394,41.628342,36.461330
820000,0.325611,3.677494,8.676587,154.988235,49.246662,35.972782
824000,-0.567426,4.395754,8.233660,165.934799,58.254295,35.438431
828000,0.124498,4.216189,7.386112,155.263046,57.613071,32.949879
832000,-0.117316,4.206613,7.374141,154.927170,60.712311,31.896446
836000,-0.706290,4.070143,7.625533,155.980606,60.773376,30.995682
840000,-0.991199,4.005499,8.281544,156.820297,61.475670,31.530033
844000,-0.873884,3.806781,8.595184,164.163803,58.116890,31.682705
848000,-1.106121,3.830723,8.173804,171.385178,53.567272,31.407894
852000,-1.170765,3.801992,7.489063,177.736328,51.216125,31.911713
856000,-1.558625,3.938462,6.564901,183.171448,53.384064,34.675072
860000,-2.157176,4.362236,5.432444,181.461517,41.658875,35.606369
864000,-2.104503,4.721366,4.594473,178.667618,38.620705,37.759041
868000,-2.640805,4.927267,4.786009,173.598923,27.048187,40.094917
872000,-2.008735,4.848258,5.458780,171.858459,23.552004,43.652168
876000,-0.797269,4.371812,6.129156,185.385178,31.903149,47.621635
880000,-1.000776,5.315128,6.617573,175.263046,25.048187,49.636902
884000,-0.524330,5.169082,7.589619,177.629456,24.193226,49.789574
888000,-0.162806,5.130774,8.659827,181.614182,23.246660,48.446064
892000,0.373495,5.147533,9.361329,187.339386,31.429867,48.201790
896000,0.141258,5.106832,8.999804,193.034042,37.445133,47.774307
900000,-0.045490,5.226542,7.623138,197.278305,36.895515,46.018581
904000,-0.270545,5.554548,6.318298,198.148544,34.544373,43.423161
908000,-0.835576,5.839458,5.183447,197.583649,33.796280,42.995682
912000,-1.106121,5.968745,3.995923,196.102737,31.887882,43.652168
916000,-0.646434,6.287174,2.755726,193.965332,32.391701,44.949879
920000,-0.840365,6.751649,2.257732,188.377548,32.132156,46.217056
924000,-0.579397,7.019799,2.255338,184.179077,29.735210,47.010948
928000,-0.383072,7.381324,2.078167,177.644730,30.849714,47.209423
932000,-0.050278,7.460332,2.954445,171.308838,32.590172,47.163620
936000,0.438139,7.575254,3.857059,167.263046,39.155056,46.888809
940000,0.792481,7.709330,4.177882,164.224869,44.971851,44.400261
944000,1.043872,7.977480,3.857059,159.782135,49.582539,41.102551
948000,0.768539,8.185776,3.363853,153.659988,49.109257,37.178886
952000,0.653617,7.903260,4.343082,148.911896,48.101624,33.423161
956000,0.256180,7.381324,6.047753,150.850830,55.903149,32.980415
960000,0.332794,6.952762,6.339846,159.247772,70.926056,33.697971
964000,-0.890643,7.558495,5.193024,150.911896,64.513840,32.400261
968000,-0.852336,7.321469,4.223372,147.919525,65.826820,32.140720
972000,-1.898602,7.855376,3.155558,140.774490,61.674141,31.423162
976000,-2.267309,7.881712,3.057395,126.377556,47.032921,31.423162
980000,-1.936909,7.259220,4.522647,127.217247,52.055820,35.346825
984000,-2.147599,7.230489,4.426879,128.774490,55.582539,39.102551
988000,-2.121263,7.608773,3.588908,130.285950,51.216125,41.621635
992000,-1.795651,7.862558,3.191471,128.972977,44.926048,43.331558
996000,-1.517924,8.049306,3.303998,127.812668,38.162693,44.003315
1000000,-0.900220,8.176199,3.665523,126.224884,36.544373,44.827744
1004000,-0.488417,8.458714,3.512294,125.293587,39.567272,44.781940
1008000,-0.079009,8.722076,3.213019,123.171448,39.658875,43.881176
1012000,-0.076614,8.872911,3.347094,121.659996,36.071087,42.323925
1016000,0.179565,8.906430,3.641581,118.911903,30.864981,39.316292
1020000,1.118092,8.791509,3.694253,121.537857,42.544373,37.117817
1024000,0.749385,9.064447,3.100491,120.591293,40.651241,32.446064
1028000,1.007959,9.205706,2.717419,117.537857,41.414600,28.018581
1032000,0.639252,9.327810,1.656788,116.560760,37.674141,22.949881
1036000,0.344765,9.440337,1.326388,111.201981,40.010021,19.682705
1040000,0.172383,9.344569,1.201889,107.690529,41.093990,17.117819
1044000,-0.055067,9.481039,0.600945,106.530228,42.834446,16.033850
1048000,-0.299275,9.665392,0.052672,104.041679,40.284828,14.140718
1052000,-0.474052,9.636662,0.263362,99.140915,38.834446,12.430795
1056000,-0.708684,9.236830,1.022324,96.026413,39.292461,11.591100
1060000,-1.139640,8.961497,1.256956,95.003510,43.292461,12.919344
1064000,-1.367089,8.961497,0.914585,93.721069,44.651241,15.407894
1068000,-1.285686,9.047688,0.335188,91.843201,43.109257,16.354460
1072000,-1.608904,9.117120,0.263362,88.698166,37.200859,17.178886
1076000,-1.462857,9.057265,0.421380,86.896637,30.437500,17.484230
1080000,-1.012747,9.081207,0.581791,85.812668,27.536737,17.850643
1084000,-1.074997,9.095572,0.296881,83.843201,23.231394,17.362093
1088000,-0.833182,9.109938,0.313640,81.003510,16.147425,16.278124
1092000,-0.572214,8.990228,0.699107,80.499695,17.032921,16.247589
1096000,-0.550666,8.930372,0.854730,79.568398,17.292461,15.087283
1100000,-0.636858,8.944737,0.785298,77.614197,17.246660,13.972779
1104000,-0.430956,8.846576,0.957681,76.087479,14.422234,12.690337
1108000,-0.294487,8.899248,0.646434,74.591293,16.788645,11.652169
1112000,-0.399832,8.805874,0.225055,72.514961,16.666508,10.033848
1116000,-0.428562,8.724471,-0.160412,69.965340,18.544371,8.873543
1120000,-0.476446,8.544906,-0.088585,66.820305,19.277195,8.018581
1124000,-0.593762,8.444349,0.246603,65.186714,20.559637,7.697971
1128000,-0.665588,8.451532,0.026336,62.728699,22.727577,7.514764
1132000,-0.699107,8.339005,-0.076614,60.423355,25.155058,7.911711
1136000,-0.809240,8.451532,-0.304064,58.102745,26.788645,8.766672
1140000,-0.751779,8.401254,-0.488417,56.133282,27.414600,8.858275
1144000,-0.842759,8.382100,-0.553061,53.980610,27.735210,9.239955
1148000,-0.897826,8.339005,-0.598550,52.072212,27.139790,9.499497
1152000,-1.072602,8.319851,-0.409408,50.927174,26.239027,9.774306
1156000,-1.362301,8.429984,-0.531513,49.140915,20.742844,10.094917
1160000,-0.816423,8.422802,-0.442927,47.721066,20.956585,11.010947
1164000,-0.972046,8.561666,-0.476446,46.713432,19.674141,11.713238
1168000,-0.857124,8.714894,-0.663194,45.018776,17.536737,11.667436
1172000,-0.624887,8.798691,-0.928950,43.171448,17.933683,11.926978
1176000,-0.581791,8.999804,-1.256956,41.079845,18.208492,11.881176
1180000,-0.615310,9.198523,-1.802834,37.889004,18.071089,12.049115
1184000,-0.533907,9.282320,-2.042254,33.812668,16.849714,11.881176
1188000,-0.361524,9.260772,-1.826776,29.751600,16.529104,11.728504
1192000,-0.248997,9.327810,-1.438915,26.866104,18.437500,11.926978
1196000,-0.268151,9.251195,-1.369483,24.072212,17.399332,11.346826
1200000,-0.112527,9.208099,-1.089362,21.827936,17.093988,10.949879
1204000,-0.074220,9.121908,-0.837971,20.240150,17.964218,10.461329
1208000,0.019154,9.102755,-0.617704,18.896639,17.307730,9.713238
1212000,0.155623,9.244013,-0.646434,17.812670,14.239027,8.201787
1216000,0.251391,9.306262,-0.452504,17.324120,11.628340,6.629269
1220000,0.256180,9.375694,-0.526724,16.972975,10.651241,5.636902
1224000,0.272939,9.588778,-0.981623,15.476790,9.063455,4.308658
1228000,0.237026,9.622296,-1.046266,13.003509,5.124524,3.117818
1232000,0.229843,9.488221,-0.514753,10.392821,4.422234,2.339192
1236000,0.308852,9.380483,-0.124498,9.675264,5.445135,2.003314
1240000,0.320823,9.442732,-0.153229,9.079844,6.498569,1.621635
1244000,0.134075,9.428367,-0.208296,8.911905,5.613073,1.194154
1248000,0.081403,9.536105,-0.363919,7.461524,3.994753,1.056749
1252000,-0.184354,9.433155,-0.270545,6.087478,1.582539,0.766673
1256000,-0.169988,9.416395,0.150835,5.140913,1.277195,1.224688
1260000,-0.117316,9.411607,0.172383,5.324119,1.872615,1.697971
1264000,-0.126893,9.485827,0.229843,4.530226,1.032921,1.896444
1268000,-0.045490,9.521740,0.131681,3.247783,1.994753,1.942245
1272000,-0.009577,9.662998,-0.033519,1.812669,1.322997,1.789574
1276000,0.069432,9.686940,-0.052672,0.530226,1.200860,1.514765
1280000,0.349553,9.763555,0.081403,0.102745,3.689409,1.041482
1284000,0.359130,9.732430,0.081403,-0.614812,4.941318,0.323925
1288000,0.418985,9.770737,0.189142,-1.133896,7.139791,-0.225693
1292000,0.399832,9.809045,0.201113,-0.691148,8.284829,-1.309663
1296000,0.167594,9.804255,0.205901,-0.950690,6.803913,-2.744777
1300000,-0.079009,9.706094,0.241814,-0.828552,4.361165,-3.950884
1304000,-0.112527,9.674969,0.423774,0.514959,2.529104,-4.637907
1308000,-0.354342,9.761160,0.079009,-0.034660,2.483302,-4.927983
1312000,-0.339977,9.801862,-0.251391,-1.179698,1.384066,-5.355464
1316000,-0.430956,9.871294,-0.332794,-3.103362,1.048188,-5.508136
1320000,-0.438139,9.775525,0.014365,-5.210233,0.147424,-5.844014
1324000,-0.387861,9.612720,0.533907,-5.561378,3.719944,-4.927983
1328000,-0.450110,9.694122,0.383072,-5.866721,5.948951,-4.240961
1332000,-0.438139,9.548077,0.608127,-6.187331,5.796279,-4.714243
1336000,-0.519542,9.493010,0.696713,-5.775118,6.193226,-4.943251
1340000,-0.663194,9.485827,0.658405,-5.378171,6.803913,-4.821113
1344000,-0.878672,9.502586,0.447716,-5.607179,5.887883,-4.989052
1348000,-0.993594,9.428367,0.596156,-5.576645,3.796279,-5.126457
1352000,-0.948104,9.478644,0.423774,-5.775118,3.704677,-4.378365
1356000,-1.103727,9.469068,0.488417,-5.881988,1.155058,-4.240961
1360000,-0.962469,9.514558,0.636858,-6.004126,0.635974,-4.103556
1364000,-0.955287,9.624691,0.481235,-6.080462,1.185592,-4.042487
1368000,-0.957681,9.792285,0.320823,-7.759851,0.864982,-4.042487
1372000,-0.864307,9.806650,0.162806,-9.149163,0.635974,-4.286762
1376000,-0.869095,9.916783,-0.033519,-11.072827,0.071089,-4.760045
1380000,-0.950498,9.883265,0.052672,-12.752217,-1.104484,-5.156991
1384000,-1.115698,9.682152,0.529119,-13.301835,-1.974713,-5.141724
1388000,-1.132457,9.560047,0.912191,-12.523210,-1.822041,-4.683709
1392000,-1.127669,9.476251,1.165976,-12.156796,-0.509064,-4.088289
1396000,-1.297657,9.380483,1.254562,-11.515575,-0.112117,-3.492869
1400000,-1.209072,9.490616,1.280898,-10.843820,-1.058682,-3.416533
1404000,-1.295263,9.583989,1.125275,-10.660614,-1.012881,-2.592106
1408000,-1.362301,9.514558,1.259350,-10.706415,-0.661736,-1.798213
1412000,-1.273715,9.591172,1.649605,-9.317102,-2.478530,-1.019587
1416000,-1.120486,9.619903,1.616086,-8.172065,-1.318224,-0.073022
1420000,-1.122881,9.639056,1.472434,-7.256034,-0.967079,0.293391
1424000,-1.180341,9.780313,1.297657,-7.149163,-0.463263,0.568200
1428000,-1.043872,9.816227,1.003170,-7.698782,0.422234,1.209421
1432000,-0.972046,9.840169,0.620098,-8.614813,1.567272,1.545299
1436000,-0.955287,9.974244,0.466869,-9.637713,1.872615,1.575833
1440000,-0.909797,9.967062,0.342371,-11.240767,2.284829,1.545299
1444000,-0.804452,10.031705,0.428562,-13.072827,2.819180,1.926978
1448000,-0.814029,9.952697,0.464475,-14.660613,4.208493,1.728505
1452000,-0.744597,9.986216,0.545878,-15.943057,6.620707,2.079650
1456000,-0.639252,9.907207,0.711078,-17.118628,8.208493,2.094917
1460000,-0.529119,9.825804,0.919373,-17.652979,8.498569,1.575833
1464000,-0.598550,9.742006,1.096544,-17.164431,7.582539,0.690337
1468000,-0.608127,9.605537,1.584962,-15.775117,4.987119,-0.637907
1472000,-0.531513,9.447520,2.003947,-12.798018,1.475669,-2.179892
1476000,-0.924162,9.354146,2.346318,-8.828553,-2.829675,-2.943251
1480000,-0.921768,9.255983,2.281674,-6.935423,-3.531965,-3.233327
1484000,-1.091756,9.210494,2.360683,-4.538477,-5.440361,-3.233327
1488000,-1.089362,9.344569,2.109292,-2.477408,-6.142652,-2.469968
1492000,-1.127669,9.380483,1.927332,-0.981224,-5.180820,-1.721877
1496000,-1.266533,9.488221,1.582567,-0.431606,-3.959446,-0.210426
1500000,-1.146823,9.600749,1.328782,-0.706415,-2.814408,0.873543
1504000,-1.060631,9.720459,1.082179,-1.591912,-1.501431,1.377360
1508000,-0.962469,9.653421,0.907402,-2.263667,-0.997614,1.835375
1512000,-1.115698,9.744401,0.849942,-3.790385,0.468035,2.186520
1516000,-0.835576,9.617508,1.122881,-2.278934,-3.989980,1.514765
1520000,-0.620098,9.703699,0.950498,-3.332370,-0.738072,1.407894
1524000,-0.517148,9.694122,0.979228,-3.836186,-0.234255,0.079650
1528000,-0.541090,9.691729,0.902614,-4.385805,0.193226,-0.317297
1532000,-0.627281,9.670180,0.955287,-4.752217,-1.257156,-1.691342
1536000,-0.567426,9.548077,1.101333,-5.500309,-0.280056,-2.714243
1540000,-0.718261,9.521740,1.041478,-5.546110,1.322997,-3.095922
1544000,-0.943315,9.576807,0.914585,-6.446874,-0.600667,-3.859281
1548000,-1.003170,9.435549,1.063026,-6.538477,-1.318224,-3.691342
1552000,-1.000776,9.430760,1.288081,-6.095729,-0.890743,-3.324930
1556000,-1.003170,9.452309,1.244985,-6.248401,-0.951812,-2.989052
1560000,-0.957681,9.519346,1.216254,-6.065194,0.361165,-2.378365
1564000,-1.041478,9.399636,1.204283,-6.538477,0.956585,-1.752411
1568000,-1.031901,9.414001,1.154005,-6.294202,0.697043,-1.218060
1572000,-1.000776,9.478644,1.189918,-5.988858,0.361165,-0.454701
1576000,-0.972046,9.485827,1.070208,-5.683515,-0.677003,-0.408900
1580000,-0.926556,9.471462,1.142034,-5.240767,-2.051049,0.094917
1584000,-0.919373,9.452309,1.261744,-4.477407,-2.112118,0.629268
1588000,-0.835576,9.476251,1.410185,-3.820919,-1.959446,0.919345
1592000,-0.792481,9.524135,1.264138,-3.622446,-1.913644,1.178887
1596000,-0.711078,9.612720,1.307234,-3.301835,-2.356392,1.163620
1600000,-0.667982,9.629479,1.082179,-2.752217,-1.776240,1.056749
1604000,-0.596156,9.715671,1.086968,-3.133896,-0.875476,1.178887
1608000,-0.610521,9.777920,1.005565,-3.790385,-1.302957,0.140719
1612000,-0.588974,9.849746,0.780510,-4.462141,-1.791507,-0.164625
1616000,-0.569820,9.849746,0.802058,-5.454507,-2.417461,-1.156991
1620000,-0.517148,9.832987,0.730232,-6.355270,-3.012881,-1.782945
1624000,-0.598550,9.847352,0.974440,-7.194965,-3.669369,-2.302029
1628000,-0.665588,9.730036,1.182736,-7.454507,-2.860209,-2.363098
1632000,-0.761356,9.576807,1.426944,-7.088095,-2.020514,-2.561571
1636000,-0.809240,9.595961,1.558625,-6.584278,-1.470896,-2.363098
1640000,-0.804452,9.612720,1.441309,-6.263667,-0.982347,-2.576838
1644000,-0.952892,9.536105,1.474828,-5.866721,-2.417461,-2.683709
1648000,-1.000776,9.493010,1.381454,-6.217866,-2.921278,-2.866915
1652000,-1.108515,9.500193,1.182736,-6.034659,-2.264789,-2.134090
1656000,-1.254562,9.416395,1.450886,-5.454507,-4.005247,-1.340197
1660000,-1.211466,9.375694,1.620875,-4.034659,-5.760972,-0.622640
1664000,-1.266533,9.301474,1.606509,-2.263667,-6.478529,0.354459
1668000,-1.086968,9.435549,1.472434,-1.973591,-5.944179,1.163620
1672000,-1.163582,9.497798,1.441309,-2.278934,-6.157919,1.514765
1676000,-1.055843,9.540894,1.314417,-2.538476,-6.447995,2.186520
1680000,-1.065420,9.526528,1.211466,-2.675881,-7.058682,2.629268
1684000,-0.955287,9.631873,1.534683,-3.118629,-7.776239,3.163620
1688000,-0.632069,9.552865,1.558625,-2.141530,-5.791507,3.209421
1692000,-0.629675,9.583989,1.438915,-1.576644,-3.989980,2.736139
1696000,-0.665588,9.689334,1.323994,-2.416339,-4.463263,2.171253
1700000,-0.478840,9.682152,1.240196,-3.347636,-3.654102,1.789574
1704000,-0.531513,9.583989,1.460463,-3.317102,-2.188453,0.965146
1708000,-0.553061,9.603143,1.371878,-2.721682,-2.157919,0.232322
1712000,-0.627281,9.526528,1.321599,-2.584278,-2.310591,-0.698976
1716000,-0.723049,9.536105,1.163582,-2.202598,-2.447995,-1.279129
1720000,-0.885855,9.555259,1.000776,-2.462140,-2.509064,-1.691342
1724000,-0.347159,9.165004,0.646434,4.591295,-4.539598,-4.393632
1728000,-0.505177,9.258378,0.943315,-6.553743,3.964219,-1.538671
1732000,-1.213860,9.380483,0.761356,-4.859087,-0.997614,-2.958518
1736000,-1.108515,9.363723,0.794875,-7.164431,-0.295324,-2.256228
1740000,-1.237802,9.215282,1.034295,-6.965958,0.422234,-1.599739
1744000,-1.218649,9.109938,1.316811,-5.729317,-1.822041,-1.263861
1748000,-1.127669,9.066842,1.577779,-4.996491,-0.234255,-0.561571
1752000,-1.182736,9.105149,1.544260,-4.401072,0.330631,0.217055
1756000,-1.165976,9.088389,1.391031,-4.172065,-0.661736,0.644536
1760000,-1.228225,9.071630,1.357512,-3.683514,-1.257156,1.117818
1764000,-1.206678,9.114726,1.443704,-2.889621,-1.241889,2.369726
1768000,-1.091756,9.131485,1.539472,-1.637713,-1.394560,3.224688
1772000,-1.017536,9.200917,1.496376,-0.523209,-1.409827,3.697971
1776000,-0.811634,9.318233,1.297657,-0.004125,-2.127385,4.003314
1780000,-0.689530,9.488221,1.209072,-0.019392,-2.325858,3.743773
1784000,-0.538695,9.595961,1.077391,-0.904888,-2.356392,3.239955
1788000,-0.553061,9.593566,1.218649,-1.591912,-2.112118,2.614001
1792000,-0.313640,9.543288,1.201889,-1.775118,-0.173186,2.690337
1796000,-0.318429,9.694122,1.264138,-1.683514,1.964218,2.247589
1800000,-0.347159,9.686940,1.139640,-1.973591,2.788646,1.407894
1804000,-0.395043,9.758766,1.142034,-2.599545,2.727577,0.583467
1808000,-0.457293,9.679757,1.149217,-2.965957,2.712310,-0.332564
1812000,-0.442927,9.718064,1.096544,-3.301835,2.788646,-1.141724
1816000,-0.620098,9.703699,1.130063,-3.683514,2.681776,-1.782945
1820000,-0.679953,9.639056,1.079785,-4.248401,2.116890,-2.363098
1824000,-0.742203,9.617508,1.316811,-4.630079,1.521470,-2.408900
1828000,-0.756568,9.579201,1.568202,-4.217866,1.521470,-2.454701
1832000,-0.742203,9.488221,1.582567,-4.202599,1.567272,-2.179892
1836000,-0.763750,9.471462,1.594538,-4.049927,1.704676,-2.714243
1840000,-0.797269,9.493010,1.333570,-4.019392,1.750478,-2.378365
1844000,-0.746991,9.526528,1.264138,-4.691149,1.765745,-2.561571
1848000,-0.751779,9.423578,1.371878,-4.996491,0.941318,-2.637907
1852000,-0.605733,9.375694,1.462857,-4.019392,1.750478,-2.256228
1856000,-0.735020,9.428367,1.539472,-3.530843,1.903150,-2.469968
1860000,-0.725443,9.315839,1.726219,-3.133896,-1.364026,-2.943251
1864000,-0.720655,9.239224,1.853112,-1.500308,-0.844942,-2.821113
1868000,-0.715866,9.282320,1.798046,-0.569010,-0.310591,-2.683709
1872000,-0.667982,9.263166,1.649605,-0.034660,-1.028148,-3.004319
1876000,-0.746991,9.315839,1.532289,0.728699,-1.333492,-2.546304
1880000,-0.763750,9.284714,1.460463,0.774501,-0.814408,-2.805846
1884000,-0.720655,9.363723,1.288081,0.377554,-0.661736,-2.424167
1888000,-0.627281,9.339781,1.316811,0.759233,1.093989,-2.134090
1892000,-0.687136,9.337387,1.137246,0.621829,-1.867843,-2.836380
1896000,-0.663194,9.397242,1.168370,-0.645346,1.261928,-2.317297
1900000,-0.845153,9.452309,1.113304,-1.439240,-1.150285,-3.004319
1904000,-0.727837,9.576807,1.132457,-3.897255,1.322997,-2.698976
1908000,-0.775721,9.406818,0.981623,-2.019392,3.918417,-3.034854
1912000,-0.804452,9.512163,1.067814,-2.782751,1.506203,-3.416533
1916000,-0.682347,9.459491,1.007959,-3.576644,3.109257,-3.645541
1920000,-0.758962,9.402030,1.005565,-4.248401,3.384066,-3.889816
1924000,-0.921768,9.406818,1.003170,-4.370538,2.132157,-4.531037
1928000,-0.895431,9.358934,1.022324,-4.675881,2.605440,-4.256228
1932000,-1.074997,9.337387,1.029507,-5.011759,1.521470,-4.088289
1936000,-1.244985,9.296685,1.146823,-4.843820,0.055821,-3.645541
1940000,-1.355118,9.244013,1.134852,-4.584278,-0.692270,-2.882182
1944000,-1.388637,9.263166,1.522712,-4.019392,-1.119751,-1.798213
1948000,-1.424550,9.325416,1.529895,-3.485041,-1.547232,-0.836380
1952000,-1.393425,9.368511,1.723825,-3.133896,-2.570133,0.369726
1956000,-1.280898,9.368511,1.953669,-2.004125,-2.524331,1.224688
1960000,-1.235408,9.469068,1.865083,-1.225499,-2.096850,1.957513
1964000,-1.151611,9.550470,1.881842,-1.103362,-1.944179,2.568200
1968000,-1.082179,9.679757,1.774103,-1.149163,-2.081583,2.659803
1972000,-0.905008,9.670180,1.659182,-1.027026,-1.806774,2.583467
1976000,-0.818817,9.770737,1.544260,-1.225499,-1.409827,2.812474
1980000,-0.701501,9.732430,1.288081,-1.179698,-0.157919,2.415528
1984000,-0.852336,9.888053,1.029507,-2.431606,-4.127385,1.468963
1988000,-0.545878,9.919178,1.192312,-4.187331,-1.302957,2.003314
1992000,-0.708684,9.911995,1.142034,-5.576645,-2.203721,1.026215
1996000,-0.569820,9.926360,1.173159,-5.927790,-2.783873,-0.225693
