time_us,ax,ay,az,gx,gy,gz
0,-0.500388,-0.931344,8.647857,-0.462140,0.483302,-0.866915
4000,-0.545878,-0.893037,8.678981,-0.782751,1.674142,-0.317297
8000,-0.553061,-0.859518,8.626308,-0.660614,2.895516,-0.027220
12000,-0.531513,-0.873884,8.611943,-0.798018,3.872615,0.644536
16000,-0.562637,-0.761356,8.485051,-1.088094,4.681776,0.873543
20000,-0.488417,-0.806846,8.559271,-1.072828,4.437501,0.919345
24000,-0.390255,-0.802058,8.588001,-0.599545,3.597806,1.423162
28000,-0.423774,-0.775721,8.712500,-0.065194,2.269562,0.995681
32000,-0.311246,-0.766145,8.671799,0.392821,1.185592,0.888810
36000,-0.284910,-0.715866,8.825027,0.728699,0.681776,0.736139
40000,-0.316035,-0.629675,8.626308,1.201982,-0.188453,0.629268
44000,-0.275333,-0.696713,8.614338,1.461524,-0.844942,0.446062
48000,-0.299275,-0.660800,8.568848,1.003508,-1.577766,0.079650
52000,-0.320823,-0.612916,8.473080,0.514959,-1.989980,0.110184
56000,-0.225055,-0.598550,8.609550,-0.034660,-2.325858,-0.179892
60000,-0.213084,-0.667982,8.633492,-0.675881,-2.035782,-0.225693
64000,-0.229843,-0.617704,8.669404,-0.996492,-1.913644,-0.179892
68000,-0.229843,-0.670376,8.767567,-1.347636,-0.936545,-0.469968
72000,-0.272939,-0.670376,8.710106,-1.973591,0.330631,-0.424167
76000,-0.248997,-0.694318,8.863335,-2.248400,1.216127,-0.439434
80000,-0.277727,-0.749385,8.781932,-2.523209,2.177959,-0.363098
84000,-0.306458,-0.758962,8.911219,-2.630080,2.635974,-0.271495
88000,-0.301669,-0.754174,8.825027,-2.904888,2.971852,-0.286762
92000,-0.339977,-0.758962,8.760384,-2.843820,3.124524,-0.347831
96000,-0.237026,-0.797269,8.820239,-2.370538,3.063455,-0.424167
100000,-0.289698,-0.828394,8.796297,-2.340003,3.307730,-0.714243
104000,-0.318429,-0.852336,8.712500,-2.340003,3.460402,-0.637907
108000,-0.380678,-0.787692,8.626308,-2.614812,3.399333,-0.592106
112000,-0.366313,-0.828394,8.552089,-2.752217,3.429867,-0.912716
116000,-0.442927,-0.845153,8.525752,-2.874354,2.559638,-0.882182
120000,-0.574608,-0.883460,8.643068,-2.904888,0.910783,-0.821113
124000,-0.569820,-0.890643,8.664616,-2.385804,-1.226621,-0.531037
128000,-0.435745,-0.902614,8.588001,-2.004125,-3.073950,-0.576838
132000,-0.612916,-0.785298,8.518570,-3.072828,-5.333491,-0.912716
136000,-0.390255,-1.012747,9.445126,-2.324736,-4.509064,-0.546304
140000,-0.435745,-1.012747,9.746795,0.698165,-1.394560,-0.011953
144000,-0.380678,-1.000776,9.303867,2.179081,0.345898,0.079650
148000,-0.311246,-0.881066,9.011775,2.576027,1.979486,0.155986
152000,-0.426168,-0.948104,8.947132,3.415722,3.353531,0.369726
156000,-0.488417,-0.845153,8.971074,3.659997,4.422234,0.507131
160000,-0.435745,-0.895431,9.038112,3.965340,4.773379,0.858276
164000,-0.347159,-0.890643,8.939949,3.889004,4.880249,0.843009
168000,-0.265756,-0.869095,8.707711,3.659997,5.170325,0.812474
172000,-0.287304,-0.782904,8.645462,3.583661,6.177959,0.614001
176000,-0.263362,-0.715866,8.631097,3.446256,6.284829,0.766673
180000,-0.213084,-0.689530,8.482656,3.430989,6.025287,0.659803
184000,-0.215478,-0.677559,8.427590,2.911905,4.727577,0.262856
188000,-0.241814,-0.672771,8.255207,2.148547,3.536737,-0.011953
192000,-0.320823,-0.677559,8.303091,1.568394,2.193226,-0.164625
196000,-0.385466,-0.672771,8.123527,0.988241,0.681776,-0.225693
200000,-0.311246,-0.715866,8.049306,0.285951,-0.509064,-0.240961
204000,-0.332794,-0.677559,8.202535,-0.752217,-0.844942,-0.317297
208000,-0.426168,-0.627281,8.020576,-1.637713,-1.241889,-0.424167
212000,-0.375890,-0.703895,8.010999,-2.507942,-1.760972,-0.469968
216000,-0.361524,-0.708684,8.106767,-3.362904,-1.822041,-0.332564
220000,-0.421380,-0.715866,8.104373,-4.141530,-1.501431,-0.286762
224000,-0.430956,-0.746991,8.300697,-4.462141,-1.562499,-0.042487
228000,-0.428562,-0.751779,8.365341,-4.248401,-1.425095,-0.271495
232000,-0.428562,-0.809240,8.377312,-4.401072,-1.348759,-0.011953
236000,-0.605733,-0.742203,8.501810,-4.233133,-1.776240,0.018581
240000,-0.612916,-0.811634,8.420407,-4.172065,-1.531965,0.461329
244000,-0.737414,-0.816423,8.611943,-4.248401,-1.486163,0.919345
248000,-0.732626,-0.768539,8.748413,-4.278934,-1.486163,1.530032
252000,-0.586579,-0.802058,8.992621,-4.049927,-1.608301,1.865910
256000,-0.481235,-0.782904,9.071630,-3.225499,-1.638835,1.972780
260000,-0.366313,-0.802058,9.176975,-2.355270,-0.814408,2.064383
264000,-0.347159,-0.751779,9.112331,-1.576644,-0.127385,1.896444
268000,-0.289698,-0.833182,8.973468,-1.103362,0.422234,1.530032
272000,-0.354342,-0.826000,9.030929,-0.507942,1.063455,1.301024
276000,-0.366313,-0.818817,9.102755,-0.172064,1.643608,1.102551
280000,-0.421380,-0.766145,9.052477,0.576027,2.391699,0.873543
284000,-0.442927,-0.787692,9.014170,1.125646,2.193226,0.949879
288000,-0.519542,-0.847547,8.875306,1.553127,1.735211,0.812474
292000,-0.545878,-0.804452,8.983045,1.797401,0.987119,0.766673
296000,-0.579397,-0.871489,8.858546,1.980608,0.605440,1.041482
300000,-0.586579,-0.809240,8.595184,1.430989,0.376432,1.148352
304000,-0.483629,-0.876278,8.561666,0.285951,0.086356,1.224688
308000,-0.545878,-0.799663,8.609550,-0.798018,-0.051049,1.194154
312000,-0.514753,-0.770933,8.475474,-1.714049,-0.799140,1.026215
316000,-0.469264,-0.725443,8.590396,-2.462140,-0.997614,1.026215
320000,-0.428562,-0.869095,8.734048,-2.965957,-0.142652,1.117818
324000,-0.390255,-0.792481,8.750807,-3.225499,0.864982,1.133085
328000,-0.466869,-0.794875,8.769960,-3.668247,2.101623,1.117818
332000,-0.380678,-0.811634,8.892065,-3.668247,2.834447,1.255223
336000,-0.454898,-0.902614,8.975863,-3.027026,3.811547,1.514765
340000,-0.488417,-0.821211,8.971074,-3.011759,3.826814,1.697971
344000,-0.339977,-0.897826,9.042900,-1.561377,4.071089,1.896444
348000,-0.404620,-0.869095,8.844181,-0.706415,2.727577,1.560566
352000,-0.320823,-0.797269,8.978256,-0.920156,1.765745,1.453696
356000,-0.198719,-0.821211,9.138668,-0.233133,2.208493,1.239955
360000,-0.196325,-0.773327,9.105149,0.713432,2.315363,0.934612
364000,-0.280122,-0.679953,8.757990,1.400455,1.994753,0.919345
368000,-0.167594,-0.694318,8.671799,1.736333,2.345898,0.644536
372000,-0.237026,-0.658405,8.480263,2.072211,2.712310,0.461329
376000,-0.234632,-0.620098,8.389283,2.270684,2.284829,0.049116
380000,-0.244209,-0.624887,8.252813,1.675264,2.635974,0.201787
384000,-0.237026,-0.588974,8.195353,1.064577,2.681776,-0.134090
388000,-0.246603,-0.588974,7.989451,-0.110996,2.697043,-0.195159
392000,-0.280122,-0.519542,8.044518,-1.057560,2.574905,-0.576838
396000,-0.304064,-0.603339,8.042124,-1.988858,2.010020,-0.683709
400000,-0.430956,-0.579397,8.128315,-2.691148,1.689409,-0.546304
404000,-0.543484,-0.634463,8.264784,-3.836186,0.971852,-0.561571
408000,-0.622492,-0.723049,8.291121,-4.584278,0.254295,-0.408900
412000,-0.696713,-0.694318,8.312668,-4.935423,-0.096850,-0.210426
416000,-0.790087,-0.758962,8.556877,-5.103362,-0.844942,0.354459
420000,-0.806846,-0.823605,8.540117,-5.485042,-1.638835,1.362093
424000,-0.658405,-0.830788,8.695741,-5.958323,-1.577766,2.125452
428000,-0.553061,-0.936133,8.769960,-6.172065,-0.967079,2.644536
432000,-0.407014,-0.912191,8.997410,-5.637713,-0.600667,3.163620
436000,-0.265756,-0.962469,9.097966,-5.103362,-0.280056,2.965146
440000,-0.208296,-0.993594,9.294291,-4.340003,-0.051049,2.781940
444000,-0.308852,-0.948104,9.502586,-2.752217,-0.203721,2.873543
448000,-0.112527,-1.043872,9.837775,-1.164430,0.193226,2.766673
452000,-0.023942,-1.017536,9.981427,0.545493,1.078722,2.766673
456000,0.016759,-1.067814,9.923966,1.797401,1.964218,2.186520
460000,0.004788,-1.048660,10.002975,3.217249,2.635974,1.713238
464000,0.014365,-1.060631,10.019734,4.408089,3.002386,1.591100
468000,0.009577,-0.998382,9.844957,5.263051,3.704677,1.194154
472000,0.057461,-0.945710,9.789890,6.133279,4.162692,0.934612
476000,0.146046,-0.928950,9.418790,6.728699,5.277195,0.736139
480000,0.045490,-0.792481,9.363723,6.621829,5.872615,0.094917
484000,0.095768,-0.744597,9.227253,6.835569,6.452768,-0.118823
488000,0.086191,-0.758962,9.026140,6.896638,7.093989,-0.240961
492000,0.031125,-0.691924,8.774749,6.789768,6.864982,-0.607373
496000,-0.090980,-0.641646,8.485051,6.499691,6.697043,-1.065388
500000,-0.153229,-0.610521,8.451532,4.957707,6.223761,-1.309663
504000,-0.213084,-0.608127,8.346188,3.980608,5.704677,-1.569205
508000,-0.332794,-0.641646,8.374918,3.324119,4.376432,-1.981419
512000,-0.438139,-0.651223,8.362947,2.194348,2.177959,-2.164625
516000,-0.636858,-0.725443,8.324639,1.629462,0.742844,-2.088289
520000,-0.790087,-0.706290,8.319851,0.866104,-0.860209,-1.828747
524000,-0.837971,-0.723049,8.327033,0.347020,-2.173186,-1.309663
528000,-0.818817,-0.780510,8.396465,0.179081,-3.073950,-0.760045
532000,-0.737414,-0.778116,8.678981,0.194348,-3.501430,-0.103556
536000,-0.646434,-0.766145,8.858546,-0.126262,-3.012881,0.583467
540000,-0.488417,-0.749385,8.798691,0.423356,-1.348759,0.934612
544000,-0.476446,-0.761356,8.813056,0.453890,-0.066316,1.407894
548000,-0.486023,-0.739808,8.769960,0.728699,0.742844,1.301024
552000,-0.486023,-0.806846,8.975863,0.789768,1.353531,1.636902
556000,-0.519542,-0.852336,9.248801,1.950073,2.162692,2.171253
560000,-0.421380,-0.804452,9.342175,3.034043,3.124524,2.079650
564000,-0.359130,-0.876278,9.236830,4.484425,3.536737,2.018581
568000,-0.272939,-0.770933,9.085996,5.629463,3.903150,1.850642
572000,-0.423774,-0.763750,8.978256,6.011142,3.246661,1.270490
576000,-0.407014,-0.730232,8.851364,6.392821,2.437501,1.026215
580000,-0.387861,-0.711078,8.750807,6.255417,1.643608,1.026215
584000,-0.459687,-0.634463,8.803479,6.240149,0.620707,0.934612
588000,-0.423774,-0.617704,8.748413,6.911905,-0.417461,0.400261
592000,-0.411803,-0.656011,8.621520,6.606562,-1.730438,-0.011953
596000,-0.435745,-0.648829,8.631097,6.591295,-2.020514,-0.256228
600000,-0.411803,-0.526724,8.520964,5.965341,-1.577766,-0.271495
604000,-0.490811,-0.605733,8.532935,5.736333,-1.623568,-0.744777
608000,-0.545878,-0.586579,8.319851,4.392821,-0.753339,-0.714243
612000,-0.476446,-0.600945,8.329428,3.430989,0.239028,-0.912716
616000,-0.600945,-0.550666,8.245630,2.255417,1.032921,-0.729510
620000,-0.588974,-0.548272,8.300697,1.064577,1.170325,-0.775312
624000,-0.703895,-0.598550,8.243237,0.789768,1.796279,-0.729510
628000,-0.830788,-0.658405,8.305486,-0.049927,1.231394,-0.332564
632000,-0.809240,-0.672771,8.365341,-0.141530,0.926050,0.140719
636000,-0.826000,-0.715866,8.425196,-0.172064,0.544371,0.598734
640000,-0.876278,-0.723049,8.453926,-0.721682,-0.417461,0.812474
644000,-0.852336,-0.696713,8.477868,-0.584278,-1.287690,1.026215
648000,-0.703895,-0.715866,8.616732,-0.370538,-2.417461,1.239955
652000,-0.694318,-0.677559,8.856153,-0.065194,-4.112117,1.453696
656000,-0.591368,-0.758962,9.200917,1.125646,-4.341125,1.331558
660000,-0.474052,-0.737414,9.157822,2.179081,-3.776240,1.468963
664000,-0.466869,-0.744597,9.088389,3.446256,-3.211354,1.194154
668000,-0.488417,-0.787692,9.057265,4.133279,-2.020514,0.873543
672000,-0.572214,-0.804452,8.887277,4.927173,-1.470896,0.980413
676000,-0.529119,-0.823605,8.805874,5.186715,-0.829675,0.904078
680000,-0.641646,-0.873884,8.614338,5.293585,-0.615934,1.178887
684000,-0.837971,-0.881066,8.588001,5.049310,-1.302957,1.377360
688000,-0.818817,-0.967257,8.441956,5.064577,-1.470896,1.743772
692000,-0.751779,-0.873884,8.372523,4.331753,-1.715171,2.003314
696000,-0.804452,-0.849942,8.571242,3.354653,-1.745705,2.049116
700000,-0.816423,-0.933739,8.492233,2.728699,-0.860209,2.537665
704000,-0.885855,-0.912191,8.470686,1.812669,-0.402194,2.965146
708000,-0.972046,-0.914585,8.650250,1.339386,0.269562,3.667437
712000,-1.027112,-0.979228,8.877700,1.629462,1.765745,4.812475
716000,-0.916979,-0.952892,9.002198,1.995875,2.666508,5.148353
720000,-0.881066,-0.948104,9.081207,2.285951,3.490936,5.972780
724000,-0.811634,-0.960075,9.153033,2.972974,5.628341,6.598734
728000,-0.830788,-0.991199,9.071630,3.659997,7.292463,7.041482
732000,-0.785298,-0.914585,9.157822,4.728699,8.529103,7.621635
736000,-0.723049,-0.849942,8.949526,5.232516,9.277195,7.881176
740000,-0.598550,-0.849942,8.918402,6.118012,8.697042,7.377360
744000,-0.509965,-0.842759,8.908825,7.568394,7.948951,6.949879
748000,-0.423774,-0.804452,8.937555,8.392821,5.964219,6.171253
752000,-0.495600,-0.785298,8.753201,9.354653,3.643608,5.209421
756000,-0.605733,-0.792481,8.702923,9.583661,0.956585,4.614001
760000,-0.603339,-0.746991,8.487445,9.766868,-1.806774,4.186521
764000,-0.689530,-0.706290,8.406042,9.568394,-4.799140,3.774307
768000,-0.761356,-0.667982,8.336611,8.942440,-8.509065,3.072016
772000,-0.694318,-0.646434,8.556877,8.194348,-11.226622,2.675070
776000,-0.677559,-0.749385,8.738836,8.026409,-12.112118,2.690337
780000,-0.730232,-0.737414,8.882488,8.102745,-12.005248,2.934612
784000,-0.656011,-0.711078,8.750807,8.301218,-9.455629,3.255223
788000,-0.608127,-0.600945,8.635885,7.995874,-5.898377,3.865910
792000,-0.610521,-0.689530,8.791509,7.873737,-2.371660,4.232322
796000,-0.634463,-0.675165,9.030929,7.659997,1.979486,4.797207
800000,-0.632069,-0.713472,9.133880,7.751600,5.796279,5.255223
804000,-0.754174,-0.711078,9.105149,7.614195,7.964219,5.759039
808000,-0.866701,-0.794875,9.402030,8.591294,10.071088,6.384994
812000,-0.826000,-0.828394,9.567230,10.255417,11.552004,7.087284
816000,-0.907402,-0.847547,9.725247,11.950073,11.826814,7.438429
820000,-0.902614,-0.792481,9.641450,13.721066,11.750478,7.713238
824000,-0.921768,-0.847547,9.797073,15.614195,10.605439,7.820108
828000,-0.857124,-0.878672,9.720459,17.721066,8.910783,7.575834
832000,-0.902614,-0.914585,9.454702,19.507326,6.635974,7.438429
836000,-0.658405,-0.782904,9.244013,20.835569,6.223761,7.133085
840000,-0.596156,-0.703895,8.841787,20.011143,4.620707,6.705605
844000,-0.660800,-0.751779,8.956709,18.988241,2.177959,5.835375
848000,-0.629675,-0.775721,9.009381,18.698166,1.353531,5.591101
852000,-0.687136,-0.715866,9.193734,18.850838,0.040554,5.652169
856000,-0.593762,-0.694318,9.105149,18.682898,-0.371659,5.316291
860000,-0.620098,-0.718261,9.232041,18.866104,1.124524,5.606368
864000,-0.615310,-0.730232,9.263166,19.568394,2.300096,5.652169
868000,-0.507571,-0.792481,9.483433,20.743967,1.872615,5.713238
872000,-0.354342,-0.811634,10.072407,22.957708,0.926050,5.133085
876000,-0.177171,-0.837971,10.658986,26.743967,1.399333,4.888811
880000,-0.105345,-0.763750,11.003751,30.331753,2.345898,3.957513
884000,-0.105345,-0.744597,10.991780,33.782135,3.246661,3.438429
888000,-0.359130,-0.720655,10.860099,37.095112,4.758111,2.720871
892000,-0.390255,-0.785298,10.558430,39.507324,5.399333,2.598734
896000,-0.579397,-0.701501,10.460267,42.072212,3.628341,2.278123
900000,-0.739808,-0.725443,9.617508,42.072212,7.719944,3.087284
904000,-0.878672,-0.660800,9.330204,41.950073,6.391699,4.323925
908000,-1.041478,-0.778116,9.339781,43.522594,1.887883,5.407895
912000,-0.562637,-0.572214,9.564836,43.568394,0.635974,5.407895
916000,-0.557849,-0.574608,9.629479,43.018776,1.277195,5.041482
920000,-0.641646,-0.562637,9.758766,43.904274,1.231394,4.797207
924000,-0.325611,-0.557849,9.859323,45.156181,0.895516,4.278123
928000,-0.356736,-0.541090,10.211270,46.850838,-0.295324,3.362093
932000,-0.545878,-0.629675,10.632649,49.827938,-1.272423,2.827742
936000,-0.509965,-0.450110,10.668563,52.774502,-2.127385,2.171253
940000,-0.421380,-0.445322,10.687716,54.698166,-0.661736,1.728505
944000,-0.782904,-0.486023,10.721235,56.072212,-0.600667,1.865910
948000,-0.790087,-0.555455,10.764331,57.705799,0.162692,1.972780
952000,-0.974440,-0.466869,10.785878,58.743969,1.689409,2.049116
956000,-1.146823,-0.579397,10.927136,59.430988,2.590173,2.934612
960000,-1.180341,-0.639252,11.451467,61.568394,6.239028,4.552933
964000,-1.276109,-0.711078,11.530476,65.171448,11.842080,6.827742
968000,-1.472434,-0.579397,10.948685,67.721062,17.506203,9.636902
972000,-1.565808,-0.486023,10.314221,69.079842,21.506203,12.598734
976000,-1.417367,-0.387861,10.256760,70.530228,24.193226,15.331558
980000,-1.197101,-0.316035,10.579977,72.988243,26.025288,17.163620
984000,-0.806846,-0.222661,10.599131,76.377556,27.200859,18.446062
988000,-0.584185,-0.138864,10.194510,79.125648,26.498569,18.446062
992000,-0.553061,0.011971,9.763555,81.095116,24.513836,17.606369
996000,-0.720655,0.169988,9.708488,82.743965,21.368797,17.224689
1000000,-0.421380,0.064643,9.698911,82.835571,19.552004,16.537666
1004000,-0.706290,0.143652,9.332599,85.247787,14.437500,16.003315
1008000,-0.775721,0.287304,9.382876,85.171448,7.490936,15.453695
1012000,-0.483629,0.296881,9.617508,86.301216,3.658875,14.583467
1016000,-0.584185,0.533907,9.454702,83.934807,0.468035,13.499497
1020000,-0.553061,0.615310,9.133880,81.659996,-1.058682,12.949879
1024000,-0.481235,0.679953,9.074024,80.347023,-0.341125,12.843008
1028000,-0.517148,0.758962,9.081207,79.247787,0.605440,13.133085
1032000,-0.459687,0.797269,9.488221,79.079842,1.277195,13.270490
1036000,-0.076614,0.787692,10.120291,80.957710,4.376432,12.995680
1040000,0.160412,0.895431,10.462662,82.682899,11.277195,12.720871
1044000,0.088585,0.943315,10.275913,85.034042,16.895515,11.865910
1048000,0.040701,0.981623,10.115502,87.873741,20.177958,11.407894
1052000,0.026336,1.046266,10.421960,91.034042,21.063456,10.400260
1056000,0.098162,1.019930,10.663774,94.453888,20.895515,9.484230
1060000,0.189142,1.022324,10.958261,99.110382,20.712309,8.598734
1064000,0.052672,1.027112,11.039664,105.293587,20.468035,7.239955
1068000,0.055067,1.156399,10.737994,110.499695,20.468035,6.369727
1072000,0.000000,1.139640,10.678140,114.606560,20.681776,5.499497
1076000,-0.122104,1.115698,10.867282,119.705803,22.376432,5.209421
1080000,-0.177171,1.070208,11.197681,125.247787,22.987120,5.041482
1084000,-0.062249,1.244985,11.616667,131.675262,26.269562,4.995681
1088000,0.076614,1.041478,12.490550,135.095108,32.834446,4.659803
1092000,0.395043,0.964863,12.351686,146.850830,43.552006,5.239955
1096000,0.409408,1.022324,12.243947,153.980606,47.597805,4.781940
1100000,0.679953,0.916979,12.801797,162.026398,57.246662,4.430795
1104000,0.407014,0.826000,13.146562,173.140900,63.338264,3.194154
1108000,0.213084,0.778116,13.651738,180.911896,65.078728,3.209421
1112000,0.088585,0.610521,14.070724,192.026398,63.185593,2.384994
1116000,0.299275,0.205901,15.643714,205.385178,67.399338,2.033848
1120000,0.088585,-0.055067,16.515203,220.285950,75.109261,2.461329
1124000,-0.361524,-0.311246,16.323668,236.667618,74.376434,2.949879
1128000,-0.385466,-0.493206,16.373945,251.385178,75.429871,3.484231
1132000,-0.703895,-0.634463,15.758636,264.530243,76.926056,4.201787
1136000,-1.168370,-0.608127,14.575900,274.148560,76.361168,5.392627
1140000,-1.199495,-0.639252,12.981361,285.629486,78.483307,7.881176
1144000,-1.592144,-0.363919,11.276690,292.408112,79.093994,10.873543
1148000,-1.594538,-0.040701,10.098742,296.759247,75.918419,13.438428
1152000,-1.357512,0.332794,8.856153,298.743988,76.010025,15.285756
1156000,-1.477222,0.646434,8.370130,298.179077,72.559639,16.995682
1160000,-1.309628,0.849942,8.537724,299.690552,73.857353,19.148354
1164000,-1.158794,1.110910,8.398860,300.056946,74.177963,20.629269
1168000,-1.082179,1.347936,7.929596,299.018799,75.796280,21.438429
1172000,-1.505953,1.496376,7.738060,296.179077,75.292465,21.942245
1176000,-1.467646,1.690306,7.994239,294.163818,75.506210,23.484230
1180000,-1.331176,1.833959,8.020576,293.904266,79.490936,24.430796
1184000,-1.482011,2.063802,7.022193,292.743988,82.529106,25.392628
1188000,-1.735796,2.425326,5.166687,289.522614,79.445137,25.865910
1192000,-1.821988,2.712631,5.351041,281.049316,77.872620,26.018581
1196000,-2.176329,2.887407,5.746084,277.812683,82.834450,28.033850
1200000,-2.612074,3.090914,5.085284,273.614197,79.857353,30.155987
1204000,-2.746149,3.280056,4.697424,269.660004,75.200867,32.262856
1208000,-2.571373,3.485958,4.644751,267.553131,73.628342,34.461330
1212000,-2.279280,3.801992,4.254497,266.255432,75.445137,35.896446
1216000,-2.468422,4.261679,2.779668,262.316498,75.964218,37.514767
1220000,-2.396596,4.979939,0.711078,254.911896,73.490936,39.148354
1224000,-2.353500,5.621585,-0.500388,243.629456,69.735214,39.942245
1228000,-2.171541,5.990293,-0.675165,230.637085,64.971855,40.522400
1232000,-1.934515,6.102820,0.107739,219.247772,63.628338,41.362095
1236000,-1.853112,6.162675,0.622492,211.278305,65.277199,43.010948
1240000,-1.726219,6.349423,0.320823,205.965332,65.658875,43.759041
1244000,-1.675941,6.586449,-0.186748,199.644730,65.307732,44.186520
1248000,-1.479617,6.780379,-0.787692,192.377548,66.956589,43.865910
1252000,-1.680730,6.821081,-0.859518,183.476791,65.719948,43.133087
1256000,-1.924938,6.873753,-0.256180,174.942429,60.910782,43.316292
1260000,-1.661576,6.876147,0.627281,168.591293,60.147423,43.239956
1264000,-1.472434,7.079654,0.754174,163.476791,60.697041,43.117817
1268000,-1.606509,7.129933,0.464475,159.476791,58.529102,42.965145
1272000,-1.424550,7.151481,0.225055,156.255417,56.849712,42.934612
1276000,-1.482011,7.426814,-0.079009,151.904266,56.391701,43.056751
1280000,-1.393425,7.577648,-0.440533,147.156174,56.574905,42.980415
1284000,-1.328782,7.848193,-0.809240,141.446243,54.666508,42.507130
1288000,-1.244985,8.025364,-0.885855,135.827927,50.010021,42.232323
1292000,-0.833182,8.365341,-1.077391,130.133270,48.529102,41.010948
1296000,-0.526724,8.542512,-1.522712,122.560760,46.635975,38.888809
1300000,-0.052672,8.638280,-1.192312,115.614197,44.025288,35.667439
1304000,0.342371,8.765172,-0.605733,109.950073,43.658875,31.804840
1308000,0.514753,8.786720,-0.237026,105.751602,42.620705,27.865910
1312000,0.639252,8.676587,-0.071826,103.308853,38.620705,22.781940
1316000,0.486023,8.604761,0.177171,99.461525,34.116890,17.621635
1320000,0.318429,8.530540,0.715866,95.889008,32.223759,13.484230
1324000,-0.045490,8.310274,1.213860,93.064575,31.735210,10.094917
1328000,-0.600945,8.169016,1.790863,91.644730,31.338264,8.125451
1332000,-0.849942,8.154651,1.493982,91.690529,32.834446,7.362093
1336000,-1.230620,8.157045,0.792481,90.041679,32.697041,6.339192
1340000,-1.874660,8.180987,0.447716,86.957710,29.582539,6.858276
1344000,-2.224213,8.176199,0.531513,84.560760,29.796280,8.614001
1348000,-2.576161,8.137892,0.533907,81.186714,29.155058,10.751406
1352000,-2.442086,8.228871,0.814029,78.866104,29.719944,12.965146
1356000,-2.171541,8.389283,0.593762,77.690529,31.307730,14.537665
1360000,-1.965640,8.619126,0.088585,75.385185,33.384064,15.774306
1364000,-1.683124,8.729259,0.074220,72.972977,31.338264,15.514764
1368000,-1.276109,8.932767,0.074220,70.774498,33.338264,15.133085
1372000,-0.993594,8.997410,0.134075,68.988243,35.811546,13.942245
1376000,-1.003170,9.002198,-0.205901,67.293587,35.903149,11.789574
1380000,-1.233014,9.042900,-0.723049,64.667633,31.368797,9.499497
1384000,-1.328782,9.009381,-0.246603,62.331753,27.261929,7.652170
1388000,-1.505953,8.920795,-0.119710,60.270683,24.910784,5.530032
1392000,-1.826776,8.880095,0.071826,57.507324,20.620707,4.018581
1396000,-1.881842,8.786720,0.071826,55.583660,18.422234,2.888810
1400000,-1.836353,8.786720,0.181959,54.362289,17.307730,2.125452
1404000,-1.881842,8.798691,-0.155623,54.072212,16.284828,1.835375
1408000,-1.850718,8.834604,-0.663194,51.446259,15.796280,1.759039
1412000,-1.802834,8.793902,-0.486023,48.667633,15.735210,1.713238
1416000,-1.592144,8.638280,-0.351948,46.591297,18.742844,2.003314
1420000,-1.757344,8.614338,-0.112527,43.278316,19.445133,1.926978
1424000,-2.011129,8.413225,-0.031125,42.194347,19.597805,3.178887
1428000,-2.080561,8.456321,0.076614,42.576027,19.811546,4.583467
1432000,-2.080561,8.542512,0.047884,41.751602,20.437500,6.339192
1436000,-2.054225,8.631097,-0.196325,41.171448,20.971851,7.575834
1440000,-1.982399,8.585608,-0.316035,38.774502,20.468035,8.598734
1444000,-2.138022,8.552089,0.457293,34.347019,20.391699,9.743772
1448000,-2.209848,8.475474,1.213860,34.530224,24.620707,12.110184
1452000,-2.123657,8.559271,0.679953,34.224884,25.674141,13.468963
1456000,-2.035071,8.690952,0.294487,33.965340,21.445133,14.033848
1460000,-1.867477,8.935161,-0.239420,33.018776,19.490936,14.552932
1464000,-1.740585,9.047688,-0.339977,30.194349,20.727577,15.301023
1468000,-1.592144,9.179369,-0.529119,28.224884,22.544371,15.789573
1472000,-1.187524,9.399636,-0.905008,25.934807,23.765745,15.010947
1476000,-1.007959,9.423578,-1.352724,23.705799,22.574905,14.094917
1480000,-0.969652,9.507375,-1.580173,21.537861,20.758112,13.041482
1484000,-0.612916,9.516952,-1.424550,19.873737,19.048187,11.316291
1488000,-0.268151,9.550470,-1.187524,18.102745,16.910784,9.362092
1492000,0.050278,9.595961,-1.096544,17.568394,16.345898,6.812475
1496000,0.062249,9.746795,-1.374272,16.606562,14.605439,3.743773
1500000,0.028730,9.785102,-1.905785,15.034042,11.048187,0.339192
1504000,-0.014365,9.734824,-2.257732,11.247784,6.254295,-3.340197
1508000,-0.694318,9.423578,-1.312023,5.766867,-0.096850,-6.042487
1512000,-1.168370,8.963891,0.040701,4.621829,-0.936545,-6.347831
1516000,-1.599327,8.690952,0.646434,4.957707,-0.554866,-6.073021
1520000,-1.850718,8.549694,0.612916,5.873737,-3.501430,-5.324930
1524000,-1.999158,8.588001,0.440533,7.369921,-5.715171,-4.347831
1528000,-1.900996,8.674192,0.169988,7.797401,-5.394560,-3.492869
1532000,-1.898602,8.829816,0.366313,6.759233,-4.600667,-2.469968
1536000,-1.845930,8.769960,0.581791,7.003509,-1.348759,-1.385999
1540000,-1.778892,8.920795,0.193930,5.797401,1.689409,-0.775312
1544000,-1.857901,8.851364,-0.055067,4.499691,3.109257,-0.393632
1548000,-1.798046,8.851364,0.201113,4.056943,5.597806,0.171253
1552000,-2.051831,8.863335,0.069432,3.568394,8.010019,1.072016
1556000,-2.090138,8.882488,0.062249,2.194348,9.826814,1.560566
1560000,-2.135628,9.050082,-0.134075,1.049310,10.239027,2.384994
1564000,-1.924938,9.220071,-0.450110,-0.599545,9.032920,2.354459
1568000,-1.833959,9.248801,-0.785298,-3.500308,7.582539,1.331558
1572000,-1.877054,9.196129,-0.301669,-7.042294,3.994753,0.354459
1576000,-2.094927,8.995016,0.861913,-7.591911,1.872615,0.217055
1580000,-1.991976,8.913613,1.565808,-5.256034,1.368798,0.629268
1584000,-1.745373,8.923190,1.345541,-2.584278,0.712310,-0.088289
1588000,-1.613692,9.002198,1.106121,-0.523209,1.887883,-1.218060
1592000,-1.910573,9.136273,0.620098,1.064577,3.002386,-1.828747
1596000,-2.166753,9.172187,0.375890,0.453890,2.010020,-2.271495
1600000,-2.557007,9.121908,0.368707,-0.507942,1.292463,-1.828747
1604000,-2.676718,9.186552,0.351948,-1.103362,1.353531,-1.065388
1608000,-2.738967,9.105149,0.196325,-1.973591,1.887883,0.155986
1612000,-2.753332,9.184157,0.296881,-2.202598,1.490936,1.407894
1616000,-2.657564,9.136273,0.435745,-2.324736,1.231394,2.094917
1620000,-2.389413,9.275137,0.579397,-2.706415,2.574905,2.888810
1624000,-1.934515,9.414001,0.201113,-3.729316,3.781013,2.659803
1628000,-1.683124,9.490616,0.201113,-5.408706,4.284829,1.865910
1632000,-1.532289,9.392453,0.227449,-6.691149,4.208493,0.766673
1636000,-1.587356,9.303867,0.593762,-6.843820,2.620707,-0.469968
1640000,-1.800440,9.232041,0.780510,-6.126263,1.368798,-1.248594
1644000,-2.023100,9.205706,0.861913,-6.889622,-0.203721,-1.844014
1648000,-2.248155,8.971074,1.795651,-7.469774,-1.226621,-1.844014
1652000,-2.530671,8.939949,2.418144,-6.019393,-0.783873,-1.019587
1656000,-2.782062,8.877700,2.430115,-3.179698,-0.432728,0.339192
1660000,-2.882619,8.959103,1.821988,-1.530843,-1.944179,1.453696
1664000,-2.705448,9.203311,1.752556,-0.843820,-2.356392,2.186520
1668000,-2.442086,9.284714,1.821988,0.087478,-0.722805,2.888810
1672000,-2.504335,9.445126,1.833959,0.194348,2.239028,3.407894
1676000,-2.439692,9.610326,1.618480,0.011142,5.521471,3.499497
1680000,-2.269703,9.710882,1.209072,-1.179698,8.910783,3.606368
1684000,-2.066196,9.780313,1.043872,-2.355270,11.002386,3.026215
1688000,-1.812411,9.876082,0.780510,-3.271301,13.689409,2.217055
1692000,-1.668759,9.911995,0.725443,-4.431606,15.964218,0.812474
1696000,-1.491588,9.926360,0.335188,-6.431606,17.719944,-0.760045
1700000,-1.632846,9.919178,0.114922,-7.576645,18.284828,-2.164625
1704000,-1.766921,9.751583,-0.067038,-9.378171,16.345898,-3.630274
1708000,-1.833959,9.756371,-0.155623,-10.523210,13.414599,-4.958518
1712000,-1.908179,9.655815,-0.596156,-11.683515,9.246661,-5.966151
1716000,-1.783680,9.500193,0.239420,-13.881988,6.193226,-6.927983
1720000,-1.865083,9.212888,0.878672,-11.027026,6.162692,-7.080655
1724000,-2.229002,9.141062,0.878672,-9.103362,4.437501,-6.775311
1728000,-2.233790,8.985439,0.890643,-7.851454,1.811547,-6.592105
1732000,-2.140416,8.978256,0.907402,-6.904889,0.529104,-6.118823
1736000,-2.039860,8.990228,1.055843,-6.462141,0.697043,-5.782945
1740000,-2.104503,8.841787,0.902614,-7.469774,-0.554866,-5.233327
1744000,-2.348712,8.760384,1.819593,-8.920156,-1.012881,-4.531037
1748000,-2.300828,8.592790,2.578555,-5.378171,4.055821,-2.271495
1752000,-2.422932,8.631097,2.027889,-3.347636,7.063455,-0.637907
1756000,-2.566584,8.805874,1.726219,-2.752217,7.170325,0.522398
1760000,-2.552219,8.892065,1.699883,-1.072828,8.208493,2.003314
1764000,-2.516306,9.076419,1.493982,-1.133896,8.971851,3.209421
1768000,-2.499547,9.143456,1.618480,-1.240766,9.613073,4.217055
1772000,-2.477999,9.232041,1.371878,-2.080461,10.071088,5.178887
1776000,-2.482787,9.378088,1.161188,-3.225499,8.971851,5.667437
1780000,-2.255338,9.437943,1.165976,-3.530843,8.040554,5.988047
1784000,-2.099715,9.469068,1.216254,-3.851454,7.490936,5.942245
1788000,-1.891419,9.591172,1.197101,-4.691149,7.811547,5.575833
1792000,-1.802834,9.646238,1.106121,-5.088095,8.116890,4.934612
1796000,-1.692701,9.660604,1.285686,-5.347637,8.147424,4.308658
1800000,-1.599327,9.607931,1.323994,-4.721683,7.826814,3.133085
1804000,-1.534683,9.710882,1.254562,-4.309469,7.796279,2.033848
1808000,-1.458069,9.658210,1.053449,-4.507942,7.445135,0.705604
1812000,-1.517924,9.653421,0.969652,-4.523210,6.926051,-0.500503
1816000,-1.446098,9.591172,0.869095,-4.767485,6.147425,-1.523403
1820000,-1.300052,9.538500,0.881066,-5.256034,5.658875,-2.851648
1824000,-1.580173,9.423578,0.878672,-5.958323,4.742845,-3.706610
1828000,-2.020706,9.212888,1.259350,-5.561378,3.002386,-3.874548
1832000,-2.152387,9.054871,1.431733,-4.187331,1.368798,-2.973785
1836000,-2.353500,8.932767,1.458069,-3.149163,-0.325858,-2.164625
1840000,-2.686294,8.836999,1.800440,-2.294202,-2.295324,-0.805846
1844000,-2.760514,8.851364,2.018312,-0.843820,-2.600667,0.812474
1848000,-2.626439,9.002198,2.066196,-0.324736,-2.906011,2.461329
1852000,-2.477999,9.040505,1.862689,0.270684,-2.218988,3.331558
1856000,-2.169147,9.248801,1.577779,0.713432,-0.447995,4.278123
1860000,-1.881842,9.507375,1.206678,0.270684,1.124524,4.522398
1864000,-1.644817,9.612720,0.919373,-0.828552,3.139791,4.049116
1868000,-1.482011,9.730036,0.509965,-2.798018,5.032921,2.949879
1872000,-1.347936,9.701305,0.792481,-5.027026,6.055821,1.697971
1876000,-1.357512,9.658210,1.043872,-5.668247,6.864982,0.736139
1880000,-1.307234,9.560047,1.252167,-5.423973,7.292463,-0.347831
1884000,-1.244985,9.526528,1.314417,-5.698782,7.017653,-1.889816
1888000,-1.278504,9.442732,1.266533,-5.714049,7.078722,-3.202793
1892000,-1.316811,9.378088,1.264138,-5.439240,6.956585,-4.500503
1896000,-1.544260,9.409213,0.991199,-5.790385,6.406967,-5.263861
1900000,-1.632846,9.366117,0.758962,-6.492675,4.391699,-6.103556
1904000,-1.805228,9.296685,0.574608,-8.141530,2.376432,-6.653174
1908000,-1.759738,9.289502,0.581791,-9.164431,0.697043,-6.546304
1912000,-1.742979,9.186552,0.888249,-9.179698,-0.692270,-6.378365
1916000,-1.869871,8.944737,1.309628,-8.798018,-1.501431,-5.905083
1920000,-2.104503,8.805874,1.778892,-7.729317,-1.394560,-4.897449
1924000,-2.116474,8.769960,2.319981,-5.576645,-0.600667,-4.027220
1928000,-2.219425,8.731653,2.238579,-3.042293,-0.157919,-2.790579
1932000,-2.236184,8.851364,2.056619,-0.889621,0.666508,-1.813480
1936000,-2.207454,9.004593,1.807622,0.209615,1.994753,-1.080655
1940000,-2.099715,9.162610,1.374272,-0.141530,3.002386,-0.943251
1944000,-2.011129,9.337387,0.871489,-1.347636,3.490936,-0.851648
1948000,-2.171541,9.339781,0.591368,-2.904888,2.956585,-0.821113
1952000,-2.118869,9.464279,0.323217,-4.080462,0.437501,-0.989052
1956000,-2.080561,9.476251,0.426168,-7.103362,-1.272423,-1.844014
1960000,-2.118869,9.385271,0.972046,-8.340003,-3.135018,-2.179892
1964000,-2.090138,9.378088,1.206678,-9.271301,-4.020514,-2.943251
1968000,-2.418144,9.148245,1.905785,-8.645347,-6.677003,-3.141724
1972000,-2.647987,8.951921,2.269703,-6.477407,-7.822041,-2.698976
1976000,-2.865860,9.210494,2.286463,-5.698782,-12.051049,-2.866915
1980000,-2.762909,8.947132,2.892196,-3.408705,-9.730438,-1.737144
1984000,-2.758120,9.136273,2.748544,-0.721682,-6.218987,-0.790579
1988000,-2.703054,9.263166,2.015918,-0.263667,-3.302957,0.079650
1992000,-2.612074,9.416395,1.276109,-0.630080,-0.921278,0.583467
1996000,-2.456451,9.572019,0.804452,-2.446873,1.185592,0.934612
