time_us,ax,ay,az,gx,gy,gz
0,0.100556,-0.885855,8.947132,-0.110996,-4.066316,-2.698976
4000,0.105345,-0.957681,8.937555,0.072211,-4.936545,-2.851648
8000,0.062249,-0.916979,8.992621,0.331753,-5.348759,-3.095922
12000,0.076614,-0.984017,8.880095,0.469157,-5.867843,-3.447068
16000,0.067038,-0.893037,8.949526,0.362287,-6.142652,-3.569205
20000,-0.035913,-1.022324,8.884883,0.362287,-5.760972,-3.385999
24000,-0.098162,-0.948104,8.935161,0.499691,-5.776239,-3.431800
28000,-0.093374,-0.928950,8.913613,0.484424,-5.394560,-3.324930
32000,-0.062249,-0.945710,8.882488,0.835569,-4.844942,-3.095922
36000,-0.057461,-0.859518,8.971074,1.079844,-4.249522,-3.034854
40000,-0.057461,-0.921768,9.033323,1.049310,-2.738072,-3.111190
44000,-0.057461,-0.873884,8.968679,1.583661,-1.501431,-2.912716
48000,-0.047884,-0.811634,8.844181,1.415722,-0.020514,-3.034854
52000,-0.079009,-0.837971,8.712500,1.354653,0.910783,-3.050121
56000,-0.165200,-0.869095,8.810662,1.476791,1.506203,-2.821113
60000,-0.220267,-0.861913,8.741230,1.827936,1.475669,-2.882182
64000,-0.313640,-0.816423,8.695741,2.606562,0.803913,-2.821113
68000,-0.292093,-0.785298,8.655039,3.079844,0.025287,-2.805846
72000,-0.241814,-0.861913,8.683769,3.721066,-0.249522,-2.760045
76000,-0.260968,-0.797269,8.583213,3.644730,-1.073950,-2.698976
80000,-0.260968,-0.806846,8.537724,3.950073,-1.760972,-2.866915
84000,-0.201113,-0.869095,8.547300,3.721066,-2.234255,-2.821113
88000,-0.277727,-0.866701,8.401254,3.522592,-2.799140,-2.744777
92000,-0.292093,-0.837971,8.429984,2.942440,-3.272423,-2.698976
96000,-0.292093,-0.852336,8.264784,2.392821,-2.967079,-2.760045
100000,-0.141258,-0.885855,8.293514,1.980608,-2.264789,-2.500503
104000,-0.193930,-0.811634,8.195353,1.064577,-1.409827,-2.561571
108000,-0.105345,-0.940921,8.169016,0.606562,-1.425095,-2.729510
112000,-0.148441,-0.919373,8.159439,0.072211,-1.440362,-2.851648
116000,-0.143652,-0.964863,8.087613,-0.614812,-1.654102,-2.943251
120000,-0.124498,-0.988805,8.224083,-1.225499,-1.608301,-2.821113
124000,-0.186748,-0.995988,8.154651,-2.141530,-2.127385,-3.279129
128000,-0.272939,-0.995988,8.374918,-2.614812,-2.738072,-2.729510
132000,-0.205901,-1.072602,8.379706,-2.721682,-2.997614,-2.943251
136000,-0.143652,-1.072602,8.525752,-3.118629,-3.623568,-2.729510
140000,-0.162806,-1.115698,8.542512,-3.286568,-3.394560,-2.775312
144000,-0.265756,-1.156399,8.822633,-3.042293,-3.684637,-2.836380
148000,-0.225055,-1.146823,8.913613,-2.889621,-2.829675,-2.134090
152000,-0.265756,-1.137246,8.935161,-2.034660,-1.669369,-1.813480
156000,-0.167594,-1.161188,8.968679,-0.996492,-0.127385,-1.538671
160000,-0.177171,-1.108515,8.944737,-0.141530,1.048188,-0.989052
164000,-0.148441,-1.175553,8.930372,1.064577,2.055821,-1.034854
168000,-0.064643,-1.058237,8.848969,1.889004,3.155058,-0.592106
172000,-0.069432,-1.053449,8.659827,2.469157,3.903150,-0.668442
176000,-0.031125,-0.969652,8.652645,2.774501,3.948951,-0.729510
180000,0.019154,-0.993594,8.628703,2.942440,3.170325,-0.821113
184000,0.014365,-0.967257,8.599973,3.278317,2.391699,-1.080655
188000,0.071826,-0.976834,8.633492,3.369921,1.674142,-1.599739
192000,0.124498,-0.969652,8.650250,3.736333,1.093989,-2.302029
196000,0.076614,-0.957681,8.652645,3.904272,0.864982,-2.439434
200000,-0.088585,-0.962469,8.635885,3.858470,0.956585,-2.668442
204000,-0.069432,-0.964863,8.554482,3.934806,1.002386,-2.683709
208000,-0.160412,-0.962469,8.415619,3.507325,1.414600,-2.821113
212000,-0.217872,-0.945710,8.214506,2.789768,1.704676,-2.500503
216000,-0.148441,-0.873884,8.281544,2.484425,1.948951,-2.500503
220000,-0.167594,-0.919373,8.128315,1.980608,2.422234,-2.576838
224000,-0.129287,-0.876278,8.099585,1.232516,2.193226,-2.515770
228000,-0.138864,-0.849942,8.058883,0.576027,2.956585,-2.347831
232000,-0.179565,-0.826000,7.994239,-0.920156,2.330631,-2.485235
236000,-0.237026,-0.835576,7.915231,-1.607178,1.658875,-2.210426
240000,-0.184354,-0.823605,7.972692,-2.782751,1.597806,-2.271495
244000,-0.258574,-0.818817,7.948750,-4.019392,-0.035782,-1.996686
248000,-0.244209,-0.871489,8.221688,-4.859087,-1.180820,-1.935617
252000,-0.229843,-0.816423,8.202535,-5.591911,-1.760972,-1.874548
256000,-0.158017,-0.806846,8.396465,-6.248401,-2.173186,-1.370732
260000,-0.174777,-0.773327,8.494628,-6.614813,-2.463263,-1.248594
264000,-0.074220,-0.802058,8.465898,-6.965958,-2.127385,-0.866915
268000,-0.014365,-0.814029,8.549694,-7.194965,-1.654102,-1.279129
272000,0.031125,-0.869095,8.748413,-7.408706,-1.623568,-0.882182
276000,0.086191,-0.940921,9.071630,-6.538477,-1.623568,-0.927984
280000,0.232238,-0.938527,9.380483,-5.378171,-1.699904,-1.233327
284000,0.222661,-0.984017,9.583989,-3.698782,-1.135018,-1.385999
288000,0.263362,-1.041478,9.600749,-1.912522,-0.524331,-2.164625
292000,0.146046,-1.005565,9.844957,-0.110996,0.315363,-1.996686
296000,0.040701,-0.988805,9.715671,1.797401,1.109257,-2.240961
300000,0.011971,-0.998382,9.402030,3.018775,1.368798,-2.332564
304000,0.014365,-0.900220,9.296685,3.598928,1.261928,-2.607373
308000,0.055067,-0.792481,9.081207,3.339386,1.292463,-2.744777
312000,0.112527,-0.869095,9.002198,3.125646,1.429867,-3.004319
316000,0.160412,-0.811634,8.872911,2.820302,2.132157,-3.065388
320000,0.129287,-0.756568,8.777143,2.453890,2.941318,-3.126457
324000,0.045490,-0.775721,8.599973,1.858470,4.193226,-3.324930
328000,0.000000,-0.723049,8.444349,1.003508,5.414600,-3.248594
332000,-0.028730,-0.770933,8.343793,0.224882,6.574905,-3.111190
336000,-0.141258,-0.778116,8.176199,-0.584278,6.635974,-2.882182
340000,-0.229843,-0.873884,8.204929,-1.881988,6.193226,-2.897449
344000,-0.304064,-0.854730,8.166622,-3.088094,6.010020,-2.347831
348000,-0.246603,-0.823605,8.207323,-4.370538,5.078722,-2.393632
352000,-0.287304,-0.866701,8.303091,-5.240767,3.628341,-2.302029
356000,-0.296881,-0.969652,8.518570,-5.759851,2.513837,-2.302029
360000,-0.342371,-0.984017,8.549694,-5.988858,1.139791,-2.347831
364000,-0.292093,-1.067814,8.590396,-6.019393,-0.081583,-2.363098
368000,-0.337582,-1.161188,8.757990,-5.851454,-0.997614,-2.088289
372000,-0.390255,-1.149217,8.793902,-5.607179,-1.577766,-1.935617
376000,-0.462081,-1.134852,8.997410,-5.454507,-2.203721,-1.218060
380000,-0.452504,-1.230620,9.186552,-4.996491,-2.386927,-0.882182
384000,-0.289698,-1.209072,9.287108,-4.385805,-1.608301,0.125452
388000,-0.234632,-1.180341,9.334992,-3.271301,-0.799140,0.720871
392000,-0.050278,-1.089362,9.526528,-2.233133,1.017653,1.072016
396000,0.107739,-1.051055,9.454702,-1.194965,3.506203,1.255223
400000,0.227449,-1.000776,9.416395,-0.126262,5.414600,1.346826
404000,0.215478,-1.010353,9.284714,0.591295,7.139791,0.995681
408000,0.330400,-0.926556,9.109938,1.095111,8.269562,0.522398
412000,0.323217,-0.864307,8.987833,1.125646,8.834447,0.522398
416000,0.220267,-0.849942,8.791509,0.988241,8.834447,0.232322
420000,0.198719,-0.770933,8.614338,0.637096,8.116890,0.278123
424000,0.246603,-0.754174,8.494628,0.118012,6.727577,-0.302029
428000,0.225055,-0.739808,8.492233,-0.584278,5.506203,-0.790579
432000,0.158017,-0.689530,8.583213,-1.286568,3.796279,-1.233327
436000,0.141258,-0.713472,8.556877,-1.836186,2.635974,-1.782945
440000,0.088585,-0.766145,8.552089,-2.385804,1.994753,-1.859281
444000,0.167594,-0.775721,8.585608,-2.691148,1.368798,-2.195159
448000,0.086191,-0.806846,8.817844,-3.225499,1.475669,-2.088289
452000,0.045490,-0.802058,8.671799,-3.454507,2.193226,-2.103556
456000,0.028730,-0.849942,8.707711,-3.698782,3.017654,-2.103556
460000,-0.014365,-0.881066,8.683769,-3.714049,3.429867,-1.828747
464000,-0.052672,-0.948104,8.829816,-3.958324,3.933684,-1.691342
468000,-0.074220,-1.005565,8.803479,-3.515576,4.956585,-1.721877
472000,-0.016759,-1.012747,8.853758,-3.637713,5.063455,-1.431800
476000,-0.040701,-1.051055,8.920795,-2.950690,4.712310,-1.248594
480000,0.000000,-1.039083,8.880095,-2.446873,4.422234,-1.523403
484000,-0.114922,-1.053449,9.081207,-1.897255,3.674142,-1.813480
488000,-0.162806,-1.158794,8.939949,-1.408705,2.971852,-2.088289
492000,-0.122104,-1.122881,8.949526,-1.103362,2.101623,-1.966151
496000,-0.143652,-1.173159,8.877700,-0.874354,1.475669,-2.195159
500000,-0.215478,-1.146823,8.904037,-0.645346,0.697043,-2.149358
504000,-0.239420,-1.151611,8.904037,-0.889621,0.330631,-2.027220
508000,-0.260968,-1.127669,8.705317,-1.149163,0.147424,-1.859281
512000,-0.196325,-1.077391,8.724471,-1.271301,-0.127385,-1.599739
516000,-0.184354,-1.082179,8.585608,-1.576644,0.269562,-1.385999
520000,-0.184354,-1.065420,8.657434,-2.187331,0.849715,-1.523403
524000,-0.181959,-1.029507,8.702923,-2.401072,1.322997,-1.279129
528000,-0.150835,-1.058237,8.576031,-2.660614,2.208493,-1.218060
532000,-0.184354,-1.024718,8.595184,-2.828552,3.063455,-0.912716
536000,-0.201113,-1.051055,8.535329,-3.439240,4.101623,-0.698976
540000,-0.179565,-1.065420,8.511387,-3.683514,4.010020,-0.607373
544000,-0.282516,-1.039083,8.499416,-4.324736,3.429867,-0.622640
548000,-0.318429,-1.063026,8.492233,-4.630079,2.620707,-0.515770
552000,-0.203507,-1.055843,8.805874,-4.217866,2.712310,-0.240961
556000,-0.146046,-1.039083,8.875306,-4.095729,2.681776,-0.317297
560000,-0.150835,-1.065420,8.925584,-3.332370,2.544371,-0.576838
564000,-0.160412,-1.108515,9.093178,-2.569010,2.254295,-0.775312
568000,-0.189142,-1.146823,9.203311,-1.286568,1.750478,-1.111190
572000,-0.260968,-1.118092,9.215282,0.056943,1.750478,-1.477602
576000,-0.198719,-1.134852,9.184157,1.095111,1.445134,-1.645541
580000,-0.308852,-1.134852,9.100361,1.919539,0.849715,-1.767678
584000,-0.416591,-1.228225,9.193734,2.713432,-0.051049,-1.660808
588000,-0.481235,-1.218649,9.141062,3.278317,-0.112117,-1.324930
592000,-0.452504,-1.209072,9.052477,3.400455,0.239028,-0.790579
596000,-0.495600,-1.187524,8.882488,3.217249,0.819180,-0.439434
600000,-0.402226,-1.177947,8.645462,2.652363,0.971852,-0.271495
604000,-0.433351,-1.144428,8.662222,2.163814,1.506203,-0.317297
608000,-0.440533,-1.158794,8.552089,1.369921,1.735211,-0.286762
612000,-0.524330,-1.120486,8.559271,0.133279,1.643608,-0.210426
616000,-0.447716,-1.130063,8.746018,-0.538476,1.658875,0.201787
620000,-0.509965,-1.173159,8.738836,-1.011759,1.933684,0.491864
624000,-0.557849,-1.206678,8.755595,-1.775118,1.689409,0.415528
628000,-0.584185,-1.230620,8.872911,-2.004125,1.704676,1.087284
632000,-0.639252,-1.249773,8.932767,-1.469774,1.781012,1.820108
636000,-0.588974,-1.340753,9.196129,-1.897255,1.124524,1.972780
640000,-0.457293,-1.340753,9.325416,-0.767484,1.002386,2.446062
644000,-0.531513,-1.328782,9.320627,-0.538476,0.223760,2.232322
648000,-0.533907,-1.312023,9.442732,0.560760,-1.058682,2.003314
652000,-0.428562,-1.391031,9.674969,1.568394,-0.997614,2.552932
656000,-0.445322,-1.414973,9.701305,2.499691,-0.829675,2.537665
660000,-0.311246,-1.513135,9.710882,3.797401,0.055821,2.476597
664000,-0.387861,-1.426944,9.830592,5.110379,0.422234,2.186520
668000,-0.428562,-1.493982,9.792285,6.270684,0.834447,1.896444
672000,-0.481235,-1.470040,9.775525,7.110379,1.216127,2.003314
676000,-0.526724,-1.539472,9.792285,8.072210,1.781012,2.232322
680000,-0.584185,-1.517924,9.830592,9.644730,1.674142,2.720871
684000,-0.620098,-1.467646,9.871294,10.759233,1.826814,3.010948
688000,-0.457293,-1.498770,9.995792,12.087478,2.651241,3.178887
692000,-0.529119,-1.558625,10.072407,14.072210,3.155058,3.438429
696000,-0.414197,-1.553837,10.084377,15.522593,3.155058,3.407894
700000,-0.512359,-1.546654,10.007763,16.972975,2.834447,3.560566
704000,-0.507571,-1.527501,10.036493,18.591295,2.910783,3.606368
708000,-0.505177,-1.517924,10.146626,21.018776,2.055821,3.484231
712000,-0.354342,-1.460463,9.914390,22.698166,2.666508,3.957513
716000,-0.213084,-1.347936,9.871294,23.110380,1.093989,3.377360
720000,-0.169988,-1.367089,10.036493,23.827936,-0.936545,2.384994
724000,-0.143652,-1.424550,10.323798,25.201982,-0.264789,1.972780
728000,-0.146046,-1.292869,10.484209,27.232517,-0.203721,1.148352
732000,-0.069432,-1.328782,10.235212,29.614197,0.040554,0.751406
736000,-0.146046,-1.316811,9.993398,31.476791,1.384066,0.537665
740000,-0.260968,-1.223437,9.694122,32.942440,1.918417,0.217055
744000,-0.404620,-1.242591,9.536105,34.026409,2.239028,0.400261
748000,-0.404620,-1.139640,9.588778,35.140911,0.773379,0.675070
752000,-0.263362,-1.165976,9.904813,36.942440,-1.165553,0.980413
756000,0.114922,-1.154005,10.553641,40.148548,-1.425095,0.598734
760000,0.215478,-1.247379,11.061212,45.797401,-1.760972,-0.042487
764000,-0.052672,-1.122881,11.901577,53.965340,-3.058682,1.041482
768000,-0.237026,-1.640028,12.703634,69.247787,-7.302957,2.491864
772000,0.895431,-1.041478,11.930307,73.812668,2.758112,0.995681
776000,0.756568,-1.118092,12.507310,76.759232,6.803913,-2.469968
780000,1.326388,-1.149217,13.845669,82.118011,18.590172,-5.447067
784000,1.072602,-2.073379,15.588647,97.736336,37.414600,-4.118823
788000,-0.227449,-1.170765,12.758701,107.293587,30.330629,-6.882182
792000,-0.138864,-1.288081,12.627020,113.507324,31.781013,-6.469968
796000,-0.234632,-1.216254,12.282255,121.476791,37.170326,-6.760045
800000,-0.787692,-1.103727,12.574347,124.469154,34.635975,-6.439434
804000,-0.782904,-1.271321,12.667721,132.545486,31.613071,-5.431800
808000,-0.665588,-1.127669,12.679692,138.820297,27.613073,-4.821113
812000,-0.581791,-1.142034,12.775460,145.782135,24.926050,-4.668441
816000,-0.318429,-1.137246,13.395558,154.560760,20.452768,-5.462335
820000,0.466869,-1.110910,14.556746,165.186707,24.635973,-5.950884
824000,0.620098,-1.194707,14.688427,177.522583,31.658875,-7.447067
828000,0.280122,-1.072602,14.070724,186.713425,33.765743,-9.095922
832000,1.096544,-0.560243,12.294226,189.110367,44.162693,-11.630274
836000,-0.524330,-0.816423,11.743559,191.812668,37.933685,-11.996686
840000,-0.114922,-0.632069,11.911154,193.201981,23.796280,-15.447068
844000,-0.134075,-0.557849,11.473015,191.904266,28.895515,-16.057755
848000,-0.665588,-0.648829,11.288661,192.713425,24.559637,-16.424166
852000,-0.059855,-0.565032,11.501745,195.293579,24.193226,-16.729509
856000,0.153229,-0.612916,11.841722,200.377548,33.277195,-16.286762
860000,0.306458,-0.569820,12.124237,207.782135,41.643608,-16.500502
864000,0.174777,-0.452504,11.834539,214.377548,46.361164,-16.653173
868000,0.038307,-0.193930,11.264719,219.782135,49.689407,-17.111189
872000,-0.229843,-0.011971,10.864887,222.087463,46.803913,-18.164623
876000,-0.210690,-0.064643,10.967838,223.965332,41.490936,-18.958517
880000,-0.416591,-0.045490,10.862494,224.682892,39.796280,-20.011953
884000,-0.914585,-0.112527,10.838552,223.934799,42.941319,-18.943251
888000,-1.364695,-0.150835,11.042058,225.140900,46.773376,-16.164625
892000,-1.675941,-0.177171,11.252748,228.667618,49.506203,-12.592106
896000,-1.711854,-0.213084,10.996569,232.087463,54.269562,-8.729510
900000,-1.486799,-0.270545,11.417948,236.362274,59.567272,-4.760045
904000,-1.247379,-0.275333,11.846510,243.125641,65.292465,-1.782945
908000,-0.921768,-0.442927,12.689269,252.362274,72.162697,1.697971
912000,-0.306458,-0.624887,13.876793,264.438629,83.429871,4.659803
916000,-0.562637,-0.450110,13.886370,277.034058,97.384071,6.736139
920000,-0.857124,-0.392649,13.278243,280.087494,104.300102,7.911711
924000,-0.418985,-1.060631,12.868834,298.621826,121.048195,12.659802
928000,-1.592144,-0.308852,10.630256,296.469177,114.376434,13.942245
932000,-1.948880,-0.275333,10.235212,298.805054,111.536743,17.117819
936000,-2.135628,-0.184354,10.338163,301.369934,111.536743,21.652170
940000,-2.643199,0.011971,9.404425,301.003510,108.040558,25.224689
944000,-2.956839,0.260968,7.908048,298.789764,101.384071,29.331558
948000,-3.028665,0.521936,7.230489,295.873749,94.483307,33.087284
952000,-2.971204,0.928950,6.505046,293.629486,90.727577,37.224689
956000,-2.882619,1.240196,6.296751,291.385193,86.620712,41.972782
960000,-2.516306,1.575385,6.289568,290.179077,83.643608,46.049118
964000,-2.312799,1.948880,5.702989,288.957703,78.651245,48.751408
968000,-2.104503,2.379837,4.759673,284.606567,75.048195,51.362095
972000,-1.596933,2.729390,4.716578,278.942444,72.284836,52.323925
976000,-1.561020,3.277662,4.572925,271.568390,67.490936,52.598736
980000,-0.794875,3.414132,4.587290,267.110382,70.819183,53.163620
984000,-0.708684,3.751714,4.024653,261.140930,71.628342,52.919346
988000,-0.615310,3.816358,4.110844,255.843201,71.643608,52.400261
992000,-0.407014,3.895366,4.826711,251.919525,77.322998,52.965145
996000,-0.220267,3.967192,5.044583,250.056931,87.521477,53.865910
1000000,-0.275333,4.235343,4.261679,247.629456,97.445137,54.278126
1004000,-0.809240,4.465186,3.131616,242.698151,99.261932,54.583466
1008000,-1.213860,4.498705,3.047819,237.293579,97.017654,55.453697
1012000,-1.271321,4.668694,3.694253,233.018768,99.002388,57.209423
1016000,-1.280898,4.958392,3.174711,232.484421,101.658875,59.499496
1020000,-1.503559,5.327099,1.826776,229.034042,98.559639,60.736137
1024000,-1.580173,6.011840,0.260968,223.293579,94.803917,61.988049
1028000,-1.649605,6.588843,-0.876278,214.866104,91.032921,63.392628
1032000,-1.211466,7.122750,-0.730232,205.858459,86.620712,63.820107
1036000,-0.727837,7.524976,-0.689530,198.759232,85.903152,64.262856
1040000,-0.265756,7.948750,-1.577779,190.179077,83.719948,62.476597
1044000,0.079009,8.415619,-2.770091,179.522583,80.193230,59.301025
1048000,0.471658,8.858546,-3.160346,167.721054,75.872620,54.629269
1052000,0.644040,9.023746,-2.750938,155.385178,71.155060,49.178886
1056000,0.363919,9.064447,-2.509123,144.667618,65.109261,44.278126
1060000,0.514753,8.959103,-1.637634,136.133270,58.605438,39.621635
1064000,0.696713,8.860941,-0.902614,128.850830,54.101624,34.171253
1068000,0.488417,8.774749,-0.198719,122.942444,49.811546,29.072018
1072000,0.366313,8.535329,0.849942,120.530228,46.010021,24.079651
1076000,0.126893,8.429984,1.273715,119.461525,43.063454,19.911713
1080000,-0.124498,8.291121,1.661576,120.362289,39.521469,16.201788
1084000,-0.653617,8.121132,1.702277,121.736336,34.101624,13.194154
1088000,-1.170765,8.262390,1.256956,121.843201,30.269562,11.774306
1092000,-1.321599,8.319851,1.017536,117.308853,27.277195,10.904078
1096000,-1.395820,8.374918,0.471658,113.873741,26.987120,10.537665
1100000,-1.855506,8.576031,-0.337582,109.690529,21.872616,10.262856
1104000,-1.886631,8.580819,-0.840365,103.751602,18.697042,10.293390
1108000,-2.054225,8.676587,-1.024718,96.347023,15.368798,10.552932
1112000,-2.008735,8.444349,-0.761356,90.255417,13.246661,11.407894
1116000,-1.843535,8.446744,-0.062249,85.553131,12.498569,11.911711
1120000,-1.798046,8.439561,0.258574,83.415726,10.681775,12.186520
1124000,-1.149217,8.413225,0.610521,82.728699,10.010019,11.865910
1128000,-0.603339,8.564059,0.071826,83.018776,13.674142,10.491863
1132000,-0.481235,8.683769,-0.397437,80.545494,16.941317,8.003314
1136000,-0.447716,8.801085,-0.208296,76.911903,15.353531,4.843009
1140000,-0.294487,8.707711,0.375890,74.850838,16.025288,1.881177
1144000,-0.526724,8.669404,0.016759,73.049309,15.765745,-1.111190
1148000,-0.885855,8.604761,-0.201113,68.514961,10.223760,-3.660808
1152000,-0.928950,8.346188,0.495600,66.255417,8.559638,-5.660808
1156000,-1.130063,8.281544,0.691924,65.400452,11.643607,-6.912716
1160000,-1.580173,8.233660,0.612916,62.514961,10.697042,-7.630273
1164000,-1.810017,8.087613,0.952892,61.079845,11.109256,-7.401266
1168000,-1.838747,8.166622,0.835576,61.049309,14.284829,-6.515769
1172000,-1.975216,8.334216,0.359130,59.476791,15.078722,-6.011953
1176000,-1.860295,8.406042,0.320823,57.537861,17.261929,-5.416533
1180000,-1.857901,8.429984,0.464475,54.957706,20.269562,-5.065388
1184000,-2.262521,8.410830,0.809240,51.889004,20.742844,-4.134090
1188000,-2.114080,8.386889,1.419762,52.224884,23.414600,-2.836380
1192000,-2.109292,8.461109,1.170765,51.430988,26.055820,-1.599739
1196000,-2.233790,8.561666,0.672771,51.507324,26.040554,-1.050121
1200000,-2.291251,8.595184,0.634463,50.453892,25.536737,-0.439434
1204000,-2.066196,8.564059,0.713472,51.354652,26.819180,1.010948
1208000,-1.922544,8.825027,0.526724,51.125645,26.544371,1.178887
1212000,-1.972822,8.904037,0.146046,50.560760,24.193226,0.904078
1216000,-1.865083,8.995016,-0.361524,49.125645,21.842081,0.461329
1220000,-1.884237,9.155427,-0.519542,46.377556,19.994753,-0.378365
1224000,-1.735796,9.124303,-0.754174,43.858471,17.918417,-0.973785
1228000,-1.668759,9.045294,-0.998382,41.110378,16.468035,-1.706609
1232000,-1.697489,9.121908,-1.247379,38.316486,15.109256,-2.179892
1236000,-1.687912,9.117120,-1.240196,34.713432,13.139791,-3.187526
1240000,-1.517924,8.999804,-1.156399,31.705799,12.712310,-4.210426
1244000,-1.704672,8.841787,-0.948104,28.102745,12.803913,-5.019587
1248000,-1.764527,8.760384,-0.684742,26.805037,14.101623,-4.515770
1252000,-1.855506,8.542512,-0.620098,25.919540,14.956584,-3.966152
1256000,-2.025495,8.556877,-0.500388,24.560760,14.864982,-3.462335
1260000,-2.296039,8.283937,-0.375890,23.659998,15.200859,-2.011953
1264000,-2.853889,8.135497,-0.023942,22.469158,14.697042,0.155986
1268000,-3.289633,8.013393,0.165200,23.186716,14.483302,3.911711
1272000,-3.438074,8.018182,-0.064643,23.049311,14.712310,7.774307
1276000,-3.464410,8.037335,-0.186748,23.217249,15.338264,11.759039
1280000,-3.162740,8.207323,-0.167594,24.285952,15.216126,15.728505
1284000,-2.863465,8.501810,-0.703895,24.316486,15.887882,18.323925
1288000,-2.437297,8.822633,-1.146823,22.316486,15.842081,20.339193
1292000,-1.958457,9.071630,-1.424550,19.095112,15.460402,21.102551
1296000,-1.417367,9.227253,-1.412579,16.652363,14.162691,20.232323
1300000,-1.352724,9.344569,-1.508347,14.759233,12.116890,19.377361
1304000,-0.945710,9.497798,-1.340753,12.331753,7.887883,17.682705
1308000,-0.450110,9.548077,-1.074997,10.453890,7.994752,15.423162
1312000,-0.265756,9.591172,-1.098939,7.965341,8.315363,12.827742
1316000,-0.330400,9.588778,-1.065420,6.240149,6.452768,10.140718
1320000,-0.428562,9.631873,-1.067814,5.354653,3.842081,7.942246
1324000,-0.474052,9.627085,-1.355118,4.011142,1.322997,5.850643
1328000,-0.634463,9.708488,-1.833959,1.843203,-1.180820,4.354459
1332000,-0.639252,9.655815,-1.946486,-0.904888,-3.867843,3.178887
1336000,-0.598550,9.641450,-1.908179,-3.103362,-6.020514,1.285757
1340000,-0.746991,9.397242,-1.304840,-5.698782,-7.425095,0.033849
1344000,-1.180341,9.131485,-0.217872,-7.729317,-7.745705,-0.271495
1348000,-1.137246,8.927979,0.586579,-6.752217,-6.768606,0.415528
1352000,-1.223437,8.781932,0.972046,-4.370538,-6.234255,0.552933
1356000,-1.388637,8.734048,0.888249,-1.897255,-6.264789,0.690337
1360000,-1.640028,8.659827,1.003170,0.118012,-6.325858,1.026215
1364000,-1.927332,8.786720,1.280898,1.003508,-5.547232,2.247589
1368000,-2.217031,8.904037,1.218649,1.201982,-2.646469,3.774307
1372000,-2.509123,9.002198,1.039083,-0.172064,-1.638835,5.621635
1376000,-2.607286,8.786720,1.249773,0.896638,-0.463263,7.316291
1380000,-2.834735,8.904037,1.230620,2.759233,1.155058,10.018581
1384000,-2.980781,9.011775,0.763750,3.950073,0.941318,12.614001
1388000,-2.748544,9.095572,0.560243,3.247783,1.017653,14.476596
1392000,-2.499547,9.299079,0.639252,2.499691,2.406966,15.835376
1396000,-2.272097,9.375694,0.584185,2.041676,3.521470,16.858276
1400000,-1.982399,9.531317,0.447716,0.606562,3.307730,16.705605
1404000,-1.613692,9.600749,0.399832,-0.431606,4.116890,16.186522
1408000,-1.206678,9.629479,0.256180,-1.164430,4.406967,14.736138
1412000,-1.041478,9.667787,0.210690,-1.622446,3.338264,12.461329
1416000,-0.936133,9.679757,0.280122,-1.561377,1.200860,10.140718
1420000,-0.962469,9.737218,0.227449,-2.416339,-1.364026,7.484231
1424000,-0.993594,9.746795,0.201113,-3.561377,-3.867843,5.056749
1428000,-1.046266,9.770737,-0.107739,-4.965958,-5.654102,2.858276
1432000,-1.027112,9.710882,-0.325611,-6.889622,-7.257155,0.278123
1436000,-1.300052,9.634268,0.107739,-8.736950,-8.890744,-1.263861
1440000,-1.228225,9.344569,0.608127,-8.049927,-7.928911,-1.828747
1444000,-1.517924,9.203311,1.039083,-8.385805,-8.005247,-2.744777
1448000,-1.714248,8.956709,1.563414,-7.943057,-7.547232,-2.729510
1452000,-1.903390,8.781932,1.685518,-6.416339,-6.096850,-2.179892
1456000,-2.126051,8.736442,1.939303,-5.240767,-7.012881,-1.126457
1460000,-2.154782,8.791509,1.972822,-3.576644,-5.150285,0.110184
1464000,-2.408567,8.813056,1.728614,-2.156797,-3.959446,1.499497
1468000,-2.468422,8.839393,1.647211,-0.859087,-4.264789,3.316291
1472000,-2.437297,8.966286,1.541866,0.331753,-3.211354,5.239955
1476000,-2.130840,9.069236,1.120486,0.957707,-1.348759,6.888811
1480000,-1.793257,9.222465,0.871489,-0.156797,0.864982,7.606368
1484000,-1.419762,9.390059,0.603339,-1.317102,1.979486,7.163620
1488000,-1.185130,9.500193,0.409408,-2.492675,2.315363,6.415528
1492000,-1.197101,9.564836,0.129287,-4.141530,1.032921,4.812475
1496000,-1.429338,9.521740,-0.136469,-6.584278,-0.585400,4.079650
1500000,-1.575385,9.490616,-0.284910,-8.538477,-3.028148,3.438429
1504000,-1.647211,9.387665,-0.016759,-9.439240,-5.486163,2.629268
1508000,-2.011129,9.267955,0.134075,-10.049927,-7.364026,2.934612
1512000,-2.152387,9.291897,0.141258,-10.843820,-9.699904,3.056749
1516000,-1.948880,9.330204,0.474052,-11.866721,-11.302958,3.117818
1520000,-1.879448,9.277532,0.830788,-12.309468,-11.211354,3.545299
1524000,-1.963245,9.217676,1.055843,-11.225499,-9.883110,3.728505
1528000,-1.786075,9.282320,0.943315,-10.767485,-9.852576,3.774307
1532000,-1.551443,9.373300,0.957681,-10.141530,-8.509065,3.087284
1536000,-1.374272,9.447520,1.029507,-9.118629,-5.272423,2.858276
1540000,-1.209072,9.481039,0.900220,-8.889622,-2.921278,2.507131
1544000,-1.039083,9.593566,0.780510,-8.782751,-1.684637,1.331558
1548000,-0.926556,9.672575,0.725443,-8.630079,0.269562,0.049116
1552000,-0.826000,9.612720,0.596156,-9.454507,2.498570,-1.431800
1556000,-0.821211,9.519346,0.756568,-10.507942,4.071089,-3.187526
1560000,-1.491588,9.260772,0.821211,-10.920156,4.422234,-4.057755
1564000,-2.027889,9.114726,0.902614,-10.172065,2.376432,-3.065388
1568000,-2.272097,8.997410,1.144428,-9.622446,-0.615934,-1.935617
1572000,-2.353500,8.954314,1.359907,-8.736950,-2.173186,-0.332564
1576000,-2.523489,9.021352,1.355118,-7.194965,-3.944179,1.682703
1580000,-2.408567,9.050082,1.228225,-6.172065,-5.669369,3.591101
1584000,-2.123657,9.251195,0.974440,-6.446874,-6.295323,4.659803
1588000,-1.814805,9.397242,0.806846,-7.622446,-7.135018,4.995681
1592000,-1.690306,9.481039,1.012747,-8.645347,-7.791507,4.629269
1596000,-1.359907,9.493010,1.060631,-9.027026,-6.951812,4.049116
1600000,-1.268927,9.555259,0.833182,-10.294202,-5.867843,2.827742
1604000,-1.063026,9.598354,0.871489,-11.317102,-4.081583,1.804841
1608000,-1.122881,9.562442,1.477222,-11.469774,-2.310591,0.293391
1612000,-1.137246,9.504981,1.537078,-10.752217,1.200860,-0.607373
1616000,-1.278504,9.536105,1.498770,-9.866721,3.872615,-1.431800
1620000,-1.331176,9.493010,1.553837,-9.408706,5.765745,-2.760045
1624000,-1.697489,9.574412,1.541866,-8.706415,6.635974,-3.447068
1628000,-1.994370,9.449914,1.252167,-8.263667,7.063455,-3.569205
1632000,-2.319981,9.409213,1.115698,-8.172065,5.964219,-3.248594
1636000,-2.547431,9.447520,1.106121,-8.462141,4.758111,-2.576838
1640000,-2.698265,9.299079,1.000776,-8.431606,3.536737,-1.263861
1644000,-2.664747,9.296685,1.132457,-8.523210,2.712310,0.583467
1648000,-2.480393,9.284714,0.972046,-8.233133,2.987119,1.606368
1652000,-2.432509,9.368511,0.840365,-8.538477,2.269562,2.186520
1656000,-2.099715,9.428367,0.986411,-8.843820,0.666508,2.583467
1660000,-1.855506,9.323022,1.192312,-8.492675,1.475669,2.446062
1664000,-1.683124,9.478644,1.122881,-8.752217,1.735211,2.369726
1668000,-1.422156,9.493010,1.175553,-9.332370,1.536737,1.362093
1672000,-1.204283,9.490616,1.237802,-9.454507,3.582539,0.415528
1676000,-1.115698,9.507375,1.005565,-9.347637,5.918417,-0.195159
1680000,-1.036689,9.512163,0.826000,-9.423973,6.941318,-1.447067
1684000,-1.338359,9.524135,0.921768,-8.965958,7.170325,-2.118823
1688000,-1.651999,9.380483,0.782904,-8.156797,5.842081,-2.469968
1692000,-1.968034,9.289502,0.885855,-8.538477,3.338264,-2.561571
1696000,-2.149993,9.212888,1.244985,-8.630079,0.437501,-2.057755
1700000,-2.300828,9.114726,1.474828,-8.401072,-1.287690,-1.126457
1704000,-2.449268,9.136273,1.546654,-8.675881,-3.348759,0.262856
1708000,-2.477999,9.093178,1.821988,-8.309469,-4.844942,1.774307
1712000,-2.217031,9.076419,1.975216,-6.630079,-5.150285,2.919345
1716000,-2.092532,9.229648,1.929727,-6.065194,-4.341125,3.499497
1720000,-1.810017,9.277532,1.929727,-4.828553,-3.455629,3.865910
1724000,-1.678335,9.409213,1.893813,-4.065194,-1.119751,3.667437
1728000,-1.448492,9.473856,1.742979,-3.881988,0.895516,3.026215
1732000,-1.309628,9.619903,1.654393,-4.263667,2.834447,2.110184
1736000,-1.343147,9.586384,1.520318,-4.187331,5.292463,0.965146
1740000,-1.453280,9.593566,1.290475,-4.263667,6.574905,0.079650
1744000,-1.563414,9.627085,1.146823,-5.408706,6.468035,-0.943251
1748000,-1.570596,9.624691,1.063026,-6.202599,6.468035,-1.767678
1752000,-1.544260,9.557653,0.948104,-7.133897,6.819180,-2.760045
1756000,-1.824382,9.516952,0.950498,-8.538477,5.170325,-3.370732
1760000,-1.893813,9.373300,1.194707,-8.904889,3.185592,-3.447068
1764000,-2.054225,9.224859,1.467646,-8.034659,2.452768,-3.218060
1768000,-2.082955,9.287108,1.513135,-7.576645,1.063455,-3.019587
1772000,-1.953669,9.200917,1.477222,-7.500309,0.422234,-2.927984
1776000,-1.872266,9.282320,1.352724,-7.362904,1.017653,-2.866915
1780000,-1.826776,9.112331,1.493982,-7.149163,0.758111,-2.500503
1784000,-1.814805,9.129091,1.515530,-5.622446,0.895516,-2.378365
1788000,-1.891419,9.200917,1.295263,-4.889622,0.666508,-2.073022
1792000,-1.881842,9.193734,1.216254,-4.553743,-0.142652,-1.584472
1796000,-1.738190,9.198523,1.283292,-4.263667,0.208493,-1.263861
1800000,-1.699883,9.191340,1.218649,-4.263667,0.727577,-1.095922
1804000,-1.778892,9.191340,1.434127,-4.446874,0.025287,-0.729510
1808000,-1.821988,9.169792,1.623269,-4.965958,0.147424,-0.424167
1812000,-1.675941,9.191340,1.663970,-4.813286,0.559638,-0.057755
1816000,-1.587356,9.253590,1.747767,-4.538477,0.666508,-0.317297
1820000,-1.565808,9.279925,1.611298,-4.660614,1.384066,-0.424167
1824000,-1.606509,9.325416,1.489193,-4.798018,2.239028,-0.561571
1828000,-1.599327,9.406818,1.357512,-5.088095,3.002386,-0.943251
1832000,-1.589750,9.430760,1.086968,-6.278934,3.078722,-0.958518
1836000,-1.527501,9.490616,1.089362,-6.950690,3.536737,-1.370732
1840000,-1.465251,9.442732,1.230620,-7.301835,3.979486,-1.691342
1844000,-1.359907,9.375694,1.436521,-7.301835,4.239028,-2.302029
1848000,-1.276109,9.445126,1.546654,-7.485042,4.361165,-3.111190
1852000,-1.151611,9.414001,1.635240,-6.904889,6.758111,-3.782945
1856000,-1.276109,9.248801,1.651999,-5.973591,7.994752,-4.454701
1860000,-1.659182,9.279925,1.312023,-4.721683,7.460402,-4.729510
1864000,-1.999158,9.196129,1.130063,-3.775118,4.834447,-4.103556
1868000,-2.059013,9.193734,0.998382,-3.530843,2.376432,-3.538671
1872000,-2.138022,9.203311,1.003170,-4.446874,0.941318,-2.637907
1876000,-2.106898,9.255983,0.931344,-5.225499,-0.600667,-2.027220
1880000,-2.025495,9.339781,0.873884,-6.569011,-2.524331,-1.462335
1884000,-1.829170,9.370906,0.799663,-8.263667,-3.470896,-1.279129
1888000,-1.699883,9.382876,0.979228,-9.317102,-3.669369,-1.340197
1892000,-1.680730,9.363723,1.177947,-9.836186,-4.738071,-1.752411
1896000,-1.632846,9.332599,1.357512,-9.485042,-5.089217,-1.996686
1900000,-1.441309,9.339781,1.503559,-9.866721,-4.386927,-2.439434
1904000,-1.482011,9.308656,1.608904,-10.080462,-2.936545,-3.019587
1908000,-1.386243,9.330204,1.699883,-10.263667,-1.150285,-3.508136
1912000,-1.350330,9.236830,1.707066,-10.340003,0.330631,-4.225693
1916000,-1.587356,9.172187,1.726219,-9.881988,0.590173,-4.485235
1920000,-1.778892,9.138668,1.711854,-9.469774,0.559638,-4.576838
1924000,-1.845930,9.114726,1.838747,-9.210233,-0.112117,-4.515770
1928000,-1.860295,9.074024,1.941698,-8.507942,-0.051049,-3.920350
1932000,-2.056619,8.949526,1.946486,-7.133897,-0.035782,-3.569205
1936000,-2.080561,9.023746,1.886631,-6.355270,-1.165553,-2.943251
1940000,-2.049437,9.057265,1.810017,-6.401072,-1.883110,-2.607373
1944000,-1.905785,9.169792,1.893813,-5.943057,-0.386927,-2.286762
1948000,-1.795651,9.224859,1.659182,-5.637713,0.788646,-1.920350
1952000,-1.716643,9.313444,1.465251,-6.385805,0.773379,-2.103556
1956000,-1.625663,9.390059,1.199495,-7.057561,0.971852,-2.424167
1960000,-1.616086,9.414001,1.182736,-7.530843,1.170325,-2.760045
1964000,-1.673547,9.459491,1.065420,-8.584278,1.017653,-3.355464
1968000,-1.549049,9.459491,0.995988,-9.958323,0.773379,-3.599739
1972000,-1.486799,9.504981,1.182736,-11.271301,1.796279,-4.042487
1976000,-1.493982,9.459491,1.256956,-11.958323,1.750478,-4.439434
1980000,-1.290475,9.390059,1.362301,-12.034659,2.376432,-5.065388
1984000,-1.470040,9.263166,1.628057,-11.515575,2.559638,-5.737144
1988000,-1.711854,9.157822,1.570596,-10.538477,1.567272,-5.950884
1992000,-1.884237,9.129091,1.908179,-9.576645,0.910783,-5.569205
1996000,-1.910573,9.038112,1.862689,-8.630079,0.620707,-5.553937
