time_us,ax,ay,az,gx,gy,gz
0,-0.754174,-1.216254,8.418014,2.514959,2.116890,0.293391
4000,-0.761356,-1.161188,8.367735,2.240149,1.719944,0.171253
8000,-0.835576,-1.180341,8.183381,1.598928,1.582539,0.507131
12000,-0.826000,-1.156399,8.116343,0.957707,1.032921,0.262856
16000,-0.818817,-1.139640,8.176199,0.148546,0.406966,0.507131
20000,-0.687136,-1.115698,8.267179,-0.752217,-0.325858,0.384994
24000,-0.723049,-1.211466,8.166622,-1.225499,-0.402194,0.522398
28000,-0.732626,-1.115698,8.228871,-1.759850,-0.585400,0.217055
32000,-0.727837,-1.149217,8.276755,-2.446873,-0.570133,-0.256228
36000,-0.723049,-1.187524,8.291121,-2.950690,-0.875476,-0.088289
40000,-0.811634,-1.237802,8.200141,-3.179698,-1.043415,-0.424167
44000,-0.787692,-1.177947,8.384495,-3.408705,-1.470896,-0.286762
48000,-0.907402,-1.295263,8.406042,-3.515576,-2.035782,-0.317297
52000,-0.914585,-1.309628,8.346188,-3.836186,-2.890743,-0.195159
56000,-0.835576,-1.314417,8.372523,-3.912522,-3.486163,0.079650
60000,-0.914585,-1.319205,8.520964,-4.095729,-3.028148,0.064383
64000,-0.852336,-1.314417,8.520964,-4.263667,-2.677003,0.491864
68000,-0.857124,-1.280898,8.537724,-4.126263,-2.325858,0.614001
72000,-0.749385,-1.300052,8.511387,-4.065194,-1.364026,0.659803
76000,-0.725443,-1.307234,8.485051,-4.492675,-1.150285,0.598734
80000,-0.735020,-1.268927,8.511387,-4.477407,-0.768606,0.522398
84000,-0.670376,-1.192312,8.631097,-4.385805,-0.814408,0.339192
88000,-0.577003,-1.276109,8.707711,-4.019392,-0.890743,-0.134090
92000,-0.529119,-1.331176,8.705317,-3.668247,-0.707537,-0.576838
96000,-0.627281,-1.340753,8.781932,-3.347636,-0.814408,-0.851648
100000,-0.658405,-1.326388,9.071630,-2.370538,-0.402194,-0.744777
104000,-0.615310,-1.436521,9.107543,-1.454507,0.010020,-1.355464
108000,-0.694318,-1.400608,9.078813,-0.782751,0.330631,-1.477602
112000,-0.742203,-1.395820,8.985439,-0.172064,0.361165,-1.798213
116000,-0.802058,-1.508347,9.081207,0.194348,0.468035,-1.981419
120000,-0.952892,-1.479617,9.095572,0.560760,0.086356,-1.752411
124000,-0.962469,-1.525106,9.141062,1.018775,0.071089,-1.385999
128000,-1.029507,-1.527501,9.038112,1.507325,0.544371,-0.882182
132000,-1.027112,-1.465251,8.983045,1.583661,1.307730,-0.424167
136000,-0.957681,-1.443704,8.767567,1.705798,2.269562,-0.225693
140000,-0.902614,-1.446098,8.808268,1.537859,2.987119,0.125452
144000,-0.893037,-1.381454,8.731653,1.614195,3.460402,0.079650
148000,-0.914585,-1.347936,8.650250,1.659997,3.765745,0.140719
152000,-0.864307,-1.247379,8.576031,1.263050,3.643608,0.247589
156000,-0.938527,-1.288081,8.415619,1.354653,3.536737,0.491864
160000,-0.969652,-1.273715,8.346188,1.003508,3.078722,0.461329
164000,-0.952892,-1.206678,8.274361,0.560760,3.139791,0.598734
168000,-0.888249,-1.139640,8.310274,0.163814,2.773379,0.644536
172000,-0.895431,-1.177947,8.173804,-0.248400,2.269562,0.400261
176000,-0.885855,-1.134852,8.123527,-0.263667,1.521470,-0.103556
180000,-0.826000,-1.051055,8.245630,-0.446873,1.109257,-0.134090
184000,-0.866701,-1.139640,8.271967,-0.691148,1.155058,-0.393632
188000,-0.890643,-1.213860,8.248025,-0.843820,1.231394,-0.515770
192000,-0.986411,-1.189918,8.339005,-0.889621,1.185592,-0.622640
196000,-1.101333,-1.154005,8.456321,-1.072828,1.231394,-0.790579
200000,-1.108515,-1.204283,8.372523,-1.271301,1.506203,-0.485235
204000,-1.204283,-1.319205,8.372523,-1.423972,1.124524,-0.531037
208000,-1.247379,-1.319205,8.451532,-1.515576,0.483302,-0.302029
212000,-1.216254,-1.347936,8.619126,-1.485041,-0.280056,-0.134090
216000,-1.221043,-1.355118,8.681376,-1.469774,-0.447995,0.125452
220000,-1.165976,-1.422156,8.674192,-1.500308,-0.264789,0.323925
224000,-1.165976,-1.419762,8.659827,-1.469774,-0.539598,0.644536
228000,-1.101333,-1.486799,8.659827,-1.362904,-0.646469,0.583467
232000,-1.101333,-1.419762,8.690952,-1.561377,-1.241889,0.675070
236000,-1.086968,-1.450886,8.705317,-1.042293,-1.531965,0.843009
240000,-1.065420,-1.417367,8.628703,-0.874354,-1.379293,1.239955
244000,-1.091756,-1.462857,8.669404,-1.088094,-1.196087,1.224688
248000,-1.012747,-1.470040,8.599973,-1.408705,-0.783873,1.407894
252000,-1.051055,-1.474828,8.561666,-1.515576,-0.386927,1.621635
256000,-1.048660,-1.393425,8.525752,-1.881988,-0.585400,1.789574
260000,-1.019930,-1.309628,8.516175,-2.233133,-0.722805,1.896444
264000,-0.964863,-1.312023,8.604761,-2.095728,-0.218988,2.018581
268000,-0.905008,-1.340753,8.451532,-2.141530,0.422234,2.354459
272000,-0.921768,-1.316811,8.248025,-2.217866,1.322997,2.583467
276000,-0.857124,-1.201889,8.609550,-2.324736,1.475669,2.476597
280000,-0.754174,-1.273715,8.458714,-2.355270,1.811547,2.720871
284000,-0.730232,-1.240196,8.571242,-2.645346,1.826814,2.583467
288000,-0.620098,-1.177947,8.590396,-3.362904,2.345898,2.262856
292000,-0.675165,-1.113304,8.262390,-6.172065,1.903150,1.453696
296000,-0.323217,-1.367089,8.549694,-8.721683,2.727577,1.224688
300000,-0.466869,-1.350330,8.726865,-3.836186,5.261929,1.484230
304000,-0.483629,-1.235408,8.580819,-2.553744,4.239028,1.087284
308000,-0.433351,-1.264138,8.542512,-2.141530,5.246661,0.781940
312000,-0.462081,-1.216254,8.501810,-1.897255,6.010020,0.140719
316000,-0.577003,-1.273715,8.401254,-2.049927,5.552005,-0.408900
320000,-0.706290,-1.280898,8.370130,-2.141530,4.422234,-0.653174
324000,-0.778116,-1.187524,8.418014,-2.507942,2.941318,-1.004319
328000,-0.797269,-1.347936,8.425196,-2.752217,1.597806,-1.263861
332000,-0.818817,-1.355118,8.329428,-2.889621,1.078722,-1.477602
336000,-0.969652,-1.338359,8.508993,-2.492675,1.338264,-1.584472
340000,-0.981623,-1.422156,8.389283,-1.973591,1.338264,-1.340197
344000,-0.981623,-1.338359,8.355764,-2.126262,1.506203,-1.233327
348000,-1.082179,-1.321599,8.319851,-2.401072,1.872615,-1.065388
352000,-1.225831,-1.357512,8.441956,-2.721682,1.414600,-0.531037
356000,-1.340753,-1.383849,8.497022,-2.340003,0.727577,-0.271495
360000,-1.300052,-1.381454,8.547300,-2.294202,1.109257,0.690337
364000,-1.276109,-1.359907,8.690952,-2.172064,1.689409,1.117818
368000,-1.268927,-1.367089,8.556877,-2.172064,2.223760,1.591100
372000,-1.254562,-1.300052,8.525752,-1.836186,2.727577,1.926978
376000,-1.204283,-1.347936,8.650250,-1.881988,2.605440,2.323925
380000,-1.106121,-1.347936,8.566454,-2.004125,1.994753,2.537665
384000,-1.007959,-1.278504,8.571242,-2.156797,1.124524,2.720871
388000,-1.063026,-1.242591,8.623915,-2.446873,-0.081583,2.278123
392000,-1.055843,-1.271321,8.475474,-2.782751,-0.768606,2.278123
396000,-0.986411,-1.355118,8.638280,-3.103362,-1.379293,2.155986
400000,-0.950498,-1.319205,8.628703,-3.378171,-1.715171,1.926978
404000,-0.948104,-1.297657,8.621520,-3.469774,-1.898377,1.759039
408000,-0.921768,-1.309628,8.616732,-3.622446,-1.852576,1.667436
412000,-0.902614,-1.309628,8.578424,-3.759850,-1.898377,1.362093
416000,-0.830788,-1.362301,8.693346,-3.897255,-1.822041,1.041482
420000,-0.864307,-1.424550,8.767567,-3.805652,-1.333492,0.751406
424000,-0.871489,-1.482011,8.765172,-3.714049,-0.600667,0.629268
428000,-1.007959,-1.508347,8.892065,-3.240766,-0.371659,0.797207
432000,-1.089362,-1.537078,8.880095,-2.538476,-0.677003,0.904078
436000,-1.134852,-1.577779,9.059659,-1.775118,-0.768606,0.873543
440000,-1.173159,-1.596933,9.052477,-1.332370,-0.783873,0.797207
444000,-1.106121,-1.680730,9.191340,-0.324736,-0.722805,1.285757
448000,-1.173159,-1.714248,9.449914,1.308852,-0.814408,1.285757
452000,-1.199495,-1.714248,9.349358,2.713432,-0.799140,1.667436
456000,-1.055843,-1.802834,9.473856,4.224883,-0.066316,2.033848
460000,-1.058237,-1.771709,9.387665,5.598928,1.063455,2.323925
464000,-1.151611,-1.752556,9.423578,6.866104,1.781012,2.781940
468000,-1.094150,-1.709460,9.279925,8.011142,2.101623,3.117818
472000,-0.988805,-1.692701,9.174581,9.308852,2.223760,3.346826
476000,-1.106121,-1.675941,9.071630,10.316485,1.933684,3.377360
480000,-0.960075,-1.577779,9.064447,10.316485,2.483302,3.316291
484000,-0.948104,-1.606509,9.030929,10.698165,3.735211,3.468963
488000,-0.897826,-1.534683,8.793902,10.850837,4.788646,3.652169
492000,-0.890643,-1.458069,8.542512,10.377554,4.437501,3.362093
496000,-0.955287,-1.443704,8.437167,9.659997,3.735211,3.224688
500000,-0.952892,-1.450886,8.401254,9.201982,1.903150,2.934612
504000,-1.007959,-1.489193,8.643068,9.186714,-0.218988,2.812474
508000,-0.921768,-1.592144,9.200917,10.423356,-2.600667,2.552932
512000,-0.928950,-1.747767,10.242394,13.263050,-2.875476,2.644536
516000,-0.945710,-1.865083,11.044453,17.339386,-0.585400,2.843009
520000,-0.873884,-1.934515,11.568783,22.896639,3.582539,3.117818
524000,-1.149217,-2.030283,11.659762,28.682898,7.475669,3.484231
528000,-1.295263,-2.054225,11.640609,34.713432,10.361164,4.537665
532000,-1.386243,-2.011129,11.288661,38.972973,12.987119,4.766673
536000,-1.508347,-2.013524,10.843340,41.217251,16.193226,5.575833
540000,-1.723825,-1.977611,10.675745,42.499691,18.864981,7.178887
544000,-1.877054,-1.991976,10.548853,44.270683,19.826813,8.537665
548000,-1.867477,-1.922544,10.438720,46.408089,20.223761,10.369726
552000,-1.800440,-1.956063,10.330980,49.034042,19.750477,11.728504
556000,-1.805228,-1.941698,10.213664,51.476791,18.864981,12.965146
560000,-1.980005,-2.075773,10.524911,55.140915,16.712309,14.598734
564000,-2.229002,-2.296039,11.475409,60.133282,11.567271,16.339193
568000,-2.446874,-2.585738,13.168109,69.201981,7.979486,19.652170
572000,-2.638410,-2.973598,14.856022,83.430992,7.613074,23.774307
576000,-1.915361,-3.078943,16.637308,99.018776,9.643607,26.064383
580000,-1.613692,-3.224990,17.389088,116.820305,22.529104,28.690338
584000,-1.991976,-3.232172,17.070658,134.331741,28.483301,31.301025
588000,-3.833117,-3.502717,17.800890,153.629456,15.506203,35.285759
592000,-0.701501,-3.287239,17.487249,172.988235,29.093988,36.125454
596000,-1.132457,-3.442862,17.202339,184.805023,35.322998,36.262856
600000,-0.282516,-3.629610,17.968483,201.140900,43.521469,36.110184
604000,-0.301669,-3.287239,18.677168,214.789764,61.506203,34.629269
608000,0.002394,-3.943250,17.427395,244.774490,91.674149,39.468964
612000,-0.478840,-3.756502,16.079458,253.980606,79.399338,37.117817
616000,-0.136469,-3.919308,16.508020,269.614197,80.971855,36.522400
620000,-0.361524,-4.132392,17.008410,285.675262,89.124527,36.507130
624000,-1.046266,-4.103662,15.976508,300.301239,84.666512,36.888809
628000,-1.146823,-3.971981,14.817715,311.308868,77.903152,37.377361
632000,-1.209072,-3.881001,13.819332,319.324127,72.574905,37.881176
636000,-1.522712,-3.612850,12.895170,324.102753,67.582542,38.888809
640000,-1.618480,-3.517082,12.270284,329.171448,57.964218,40.079651
644000,-1.091756,-3.160346,11.571177,332.194366,53.872616,40.491863
648000,-1.122881,-2.647987,10.381259,331.660004,55.903149,40.812473
652000,-1.230620,-2.133234,8.609550,327.553131,58.742844,41.407894
656000,-0.758962,-1.513135,7.082048,319.797424,66.254295,41.606369
660000,-1.091756,-0.696713,5.925649,308.224884,75.139793,42.583466
664000,-1.508347,-0.366313,5.674258,301.247803,77.322998,44.827744
668000,-1.151611,0.105345,5.394136,295.156189,78.284836,45.942245
672000,-0.730232,0.567426,5.102044,289.247803,78.040558,45.911713
676000,-0.174777,0.979228,5.341464,284.270691,77.460403,44.018581
680000,-0.114922,1.225831,5.559336,279.293579,80.849716,41.224689
684000,-0.447716,1.656788,4.915296,272.637115,81.277199,38.049118
688000,-0.912191,2.032677,4.232949,263.782135,77.353539,34.919346
692000,-1.242591,2.444480,3.878607,253.430984,70.147430,31.804840
696000,-1.843535,2.683900,3.871424,244.545486,59.231392,29.591101
700000,-2.233790,2.861071,3.902549,236.682892,47.322998,28.415529
704000,-2.358289,2.887407,4.386178,230.163803,38.376431,28.171253
708000,-2.463634,2.956839,4.939238,225.766861,33.322998,28.308659
712000,-2.722207,2.911349,5.640739,222.850830,31.216125,29.026215
716000,-2.537854,2.676718,7.072472,223.492050,34.040554,31.484230
720000,-2.681506,2.585738,7.821857,226.530212,43.460400,34.232323
724000,-2.868254,2.693477,7.287950,227.644730,48.651241,36.858276
728000,-3.155558,2.925714,6.521805,226.530212,50.010021,39.484230
732000,-3.260903,3.193865,6.016629,225.186707,49.689407,41.438431
736000,-3.224990,3.667917,5.276821,221.079834,51.811546,44.446064
740000,-3.351882,4.163517,4.472369,215.659988,54.330631,47.224689
744000,-3.313575,4.479551,3.531447,208.759232,56.773376,50.720871
748000,-3.325546,5.003881,2.300828,200.576019,57.002384,53.239956
752000,-3.196259,5.439626,1.359907,191.446243,53.872616,55.117817
756000,-2.875436,5.851429,0.950498,181.736328,49.857349,56.293392
760000,-2.506729,6.174646,0.761356,170.682892,43.811546,56.583466
764000,-2.056619,6.337452,1.525106,161.934799,39.781013,56.354462
768000,-1.647211,6.435614,2.080561,154.026398,37.979485,55.362095
772000,-1.290475,6.390124,2.980781,149.079834,34.071087,53.865910
776000,-1.000776,6.414066,3.797204,146.621826,29.231394,51.239956
780000,-0.577003,6.550536,4.276044,144.484421,30.040554,48.781940
784000,-0.275333,6.564901,4.405331,142.911896,31.536737,45.178886
788000,-0.227449,6.423643,5.640739,141.675262,33.704678,42.018581
792000,-0.497994,6.416461,5.894525,143.324112,39.078720,39.667439
796000,-0.627281,6.457162,5.418078,144.011139,44.422234,37.499496
800000,-1.098939,6.545747,4.529830,143.507324,47.765743,35.972782
804000,-1.707066,6.560112,3.722984,140.896637,49.002384,34.965145
808000,-2.255338,6.521805,4.036624,137.843201,48.651241,35.514767
812000,-2.470816,6.385336,4.520253,137.919525,50.773376,37.316292
816000,-3.014300,6.459556,3.823540,136.224869,49.216125,39.713238
820000,-3.119645,6.526594,3.035848,133.293579,47.368797,41.911713
824000,-3.191471,6.533776,3.153164,131.690521,43.796280,44.552933
828000,-3.284845,6.524199,3.100491,129.843201,39.032921,46.629269
832000,-3.110068,6.641516,2.954445,127.537857,35.567272,48.995682
836000,-2.918532,6.955156,2.803610,125.034042,30.971851,50.171253
840000,-2.439692,6.962338,2.729390,123.247787,27.490936,50.965145
844000,-1.905785,7.247249,2.430115,121.858475,25.689409,50.690338
848000,-1.556231,7.560889,2.001553,118.759232,25.399332,49.652168
852000,-1.156399,7.795521,1.635240,115.140915,26.926050,48.079651
856000,-0.969652,7.908048,1.230620,110.820305,25.567272,45.514767
860000,-0.790087,8.025364,1.314417,105.568398,25.338264,42.598736
864000,-0.768539,8.030152,1.343147,100.850838,27.277195,40.293392
868000,-0.897826,7.970297,1.314417,94.835571,28.574905,37.331558
872000,-1.163582,7.754819,2.540248,88.942444,30.635973,35.697971
876000,-1.292869,7.419631,3.936068,87.889008,36.361164,35.072018
880000,-1.584962,7.309498,4.070143,88.408089,41.399334,34.552933
884000,-1.889025,7.240066,3.768473,88.911903,42.803913,34.217056
888000,-2.188300,7.242460,3.174711,89.507324,43.552006,34.629269
892000,-2.568978,7.304709,2.782062,89.537857,41.414600,35.759041
896000,-2.592921,7.419631,2.521094,88.240150,40.010021,36.858276
900000,-2.494758,7.498640,2.195483,87.766869,40.513836,38.629269
904000,-2.427721,7.613562,1.470040,85.446259,38.254295,39.667439
908000,-2.214637,7.898471,1.017536,82.102745,34.376431,40.110184
912000,-1.956063,7.984663,0.794875,79.369919,32.651241,40.354462
916000,-1.673547,8.185776,0.476446,76.331757,31.597805,40.064384
920000,-1.352724,8.362947,0.071826,72.331757,29.811546,38.476597
924000,-1.233014,8.396465,0.110133,67.766869,25.933683,36.781940
928000,-1.051055,8.494628,0.737414,64.194344,21.567272,34.843010
932000,-0.567426,8.566454,1.441309,61.553127,22.483301,32.339191
936000,-0.373495,8.619126,1.479617,59.492058,24.193226,29.774307
940000,-0.644040,8.554482,1.290475,56.408089,23.185593,26.461330
944000,-0.945710,8.463503,1.996764,53.522594,22.208492,24.003315
948000,-1.130063,8.355764,2.710236,53.537861,24.208492,22.888811
952000,-1.295263,8.441956,2.664747,53.400455,26.773378,21.881178
956000,-1.498770,8.540117,2.324770,52.911907,27.887882,21.163620
960000,-1.450886,8.667010,1.841141,52.316486,30.193226,20.476597
964000,-1.898602,8.552089,1.522712,50.514961,28.529104,19.346827
968000,-1.632846,8.762778,1.699883,49.522594,29.796280,20.110186
972000,-2.063802,9.030929,0.756568,46.820305,31.445133,20.079651
976000,-1.345541,9.136273,-0.086191,41.492058,33.643608,19.514765
980000,-1.685518,9.224859,0.220267,37.659996,27.216125,18.369726
984000,-0.905008,9.315839,0.502782,34.881371,28.666508,16.934612
988000,-0.778116,9.368511,0.407014,31.461525,28.437500,14.323924
992000,-0.821211,9.411607,0.433351,28.667631,24.361164,11.270490
996000,-0.746991,9.311050,0.890643,26.988241,22.910784,8.873543
1000000,-0.567426,9.241618,1.467646,27.354654,22.895515,6.751406
1004000,-0.464475,9.057265,1.764527,27.843204,24.987120,4.491864
1008000,-0.876278,8.942344,1.541866,27.919540,26.773378,2.720871
1012000,-1.477222,8.681376,1.731008,28.209616,25.719944,1.988047
1016000,-2.054225,8.559271,2.061408,29.308853,24.559637,2.858276
1020000,-2.133234,8.463503,1.999158,30.942440,23.506203,4.858276
1024000,-2.296039,8.432379,1.798046,32.087479,23.353531,6.812475
1028000,-2.403779,8.511387,1.477222,31.614197,23.842081,9.041482
1032000,-2.274492,8.561666,1.290475,31.324120,25.139790,11.484230
1036000,-1.970428,8.789114,1.067814,30.255417,27.292461,13.468963
1040000,-1.771709,8.844181,0.866701,29.385189,26.987120,14.995680
1044000,-1.230620,8.956709,0.648829,28.972975,29.399332,15.743772
1048000,-1.060631,9.074024,0.119710,27.049311,28.910784,15.728505
1052000,-0.842759,9.153033,0.100556,24.988241,26.788645,15.041482
1056000,-0.665588,9.160215,0.246603,22.163815,26.605440,14.125451
1060000,-0.624887,9.200917,0.414197,20.591295,24.666508,12.995680
1064000,-0.440533,9.196129,0.397437,19.950073,22.391699,11.697970
1068000,-0.258574,9.346964,0.308852,19.079845,20.132156,9.896443
1072000,-0.031125,9.387665,0.488417,18.560760,19.796280,7.926979
1076000,-0.201113,9.308656,0.565032,17.797401,19.002386,5.942245
1080000,-0.292093,9.313444,0.574608,16.576027,16.284828,3.926979
1084000,-0.474052,9.172187,1.139640,16.453890,13.017653,2.308658
1088000,-0.624887,9.033323,1.570596,18.148546,12.941318,1.102551
1092000,-1.146823,8.911219,1.513135,20.285952,12.406966,0.812474
1096000,-1.525106,8.939949,1.029507,21.278318,9.994752,0.720871
1100000,-1.510741,8.947132,0.871489,21.385189,8.330630,0.843009
1104000,-1.587356,8.935161,0.840365,19.873737,7.674142,1.072016
1108000,-1.707066,8.899248,1.199495,18.621830,8.239027,1.988047
1112000,-1.448492,8.987833,0.921768,18.285952,9.155058,2.888810
1116000,-1.273715,9.174581,0.667982,16.866104,8.376431,2.369726
1120000,-0.878672,9.246407,0.548272,15.766867,8.758111,1.301024
1124000,-0.512359,9.296685,0.651223,14.530226,10.208493,0.140719
1128000,-0.282516,9.366117,0.730232,12.560760,12.116890,-2.103556
1132000,-0.110133,9.258378,0.902614,10.789768,13.842080,-5.034853
1136000,-0.471658,9.220071,1.130063,10.392821,14.803913,-7.294395
1140000,-1.304840,8.980651,1.063026,11.095112,12.529103,-8.561572
1144000,-2.013524,8.834604,0.756568,10.392821,9.185592,-8.271495
1148000,-2.312799,8.779537,0.869095,9.232516,5.826814,-7.218060
1152000,-2.434903,8.683769,1.122881,10.423356,2.956585,-5.615006
1156000,-2.485181,8.781932,1.007959,10.637096,0.376432,-4.195159
1160000,-2.422932,8.904037,0.639252,9.278317,-1.409827,-3.538671
1164000,-2.291251,8.949526,0.543484,7.125646,-2.524331,-2.622640
1168000,-2.214637,8.987833,0.909797,5.751600,-3.455629,-1.905083
1172000,-1.790863,8.932767,1.460463,5.232516,-2.890743,-1.630274
1176000,-1.388637,9.033323,1.675941,5.705799,0.208493,-1.859281
1180000,-1.134852,9.095572,1.359907,5.369921,3.933684,-2.821113
1184000,-0.900220,9.047688,1.122881,4.927173,6.681776,-4.256228
1188000,-0.833182,9.198523,1.041478,3.522592,9.429867,-5.660808
1192000,-0.770933,9.042900,1.221043,3.201982,10.773378,-7.508136
1196000,-1.225831,9.018958,1.510741,4.041677,11.017653,-8.515770
1200000,-1.666364,8.722076,1.568202,3.522592,9.368798,-8.897449
1204000,-2.102109,8.681376,1.532289,3.354653,6.926051,-8.607373
1208000,-2.444480,8.614338,1.496376,3.995875,5.093989,-7.340197
1212000,-2.722207,8.609550,1.233014,5.079844,2.162692,-5.385999
1216000,-2.681506,8.805874,0.754174,4.530226,-0.875476,-3.508136
1220000,-2.525883,9.066842,0.495600,3.140913,-2.188453,-2.240961
1224000,-2.219425,9.234436,0.282516,0.652363,-2.936545,-1.645541
1228000,-1.977611,9.157822,0.318429,-2.156797,-4.234255,-1.798213
1232000,-1.991976,9.117120,1.031901,-3.561377,-5.043415,-1.645541
1236000,-2.128445,9.023746,1.719037,-3.088094,-4.615934,-1.385999
1240000,-2.195483,8.944737,2.164358,-1.240766,-4.051049,-1.095922
1244000,-1.965640,9.033323,2.358289,0.301218,-2.157919,-0.836380
1248000,-1.989582,9.117120,2.262521,2.499691,1.002386,-0.912716
1252000,-2.008735,9.296685,1.903390,2.988241,3.842081,-0.607373
1256000,-1.996764,9.361329,1.647211,3.430989,6.086356,-0.805846
1260000,-2.042254,9.493010,1.027112,3.308852,7.292463,-0.943251
1264000,-2.157176,9.493010,0.749385,0.652363,5.460402,-1.477602
1268000,-2.068590,9.356541,1.151611,-1.317102,3.979486,-1.767678
1272000,-2.257732,9.143456,1.659182,-1.912522,4.193226,-1.416533
1276000,-2.473210,9.050082,2.027889,-1.149163,4.849715,-0.271495
1280000,-2.375048,9.018958,2.039860,-0.187331,4.635974,0.659803
1284000,-2.434903,9.062054,1.781286,0.896638,3.735211,1.270490
1288000,-2.466028,9.112331,1.541866,1.659997,2.361165,2.003314
1292000,-2.542642,9.109938,1.561020,2.331753,1.048188,2.919345
1296000,-2.432509,9.119514,1.448492,3.003508,0.697043,4.171253
1300000,-2.116474,9.272743,1.359907,2.560760,0.406966,4.568200
1304000,-1.910573,9.205706,1.137246,2.224883,0.620707,4.919345
1308000,-1.989582,9.277532,0.984017,1.385188,0.239028,4.690337
1312000,-1.989582,9.299079,0.938527,0.530226,-0.615934,5.239955
1316000,-1.802834,9.361329,1.211466,0.316485,-1.531965,4.965147
1320000,-1.515530,9.375694,1.438915,0.102745,-1.623568,4.537665
1324000,-1.403002,9.402030,1.326388,-0.202598,-0.921278,3.743773
1328000,-1.338359,9.483433,1.340753,-0.996492,-0.982347,2.766673
1332000,-1.206678,9.416395,1.498770,-1.515576,-0.264789,1.407894
1336000,-1.410185,9.385271,1.551443,-1.958324,-0.066316,0.278123
1340000,-1.841141,9.308656,1.980005,-2.095728,-0.860209,-0.760045
1344000,-1.905785,9.133880,2.157176,-1.332370,-1.455629,-0.531037
1348000,-1.999158,9.078813,2.233790,-0.660614,-1.760972,-0.744777
1352000,-1.994370,9.114726,2.260126,0.530226,-1.180820,-0.698976
1356000,-1.855506,9.277532,2.063802,0.957707,0.010020,-0.912716
1360000,-1.905785,9.291897,1.824382,0.713432,0.834447,-1.324930
1364000,-1.908179,9.272743,1.549049,-0.309469,1.979486,-2.027220
1368000,-1.860295,9.392453,1.422156,-1.530843,3.032921,-2.439434
1372000,-1.920150,9.315839,1.201889,-2.843820,3.750478,-3.156991
1376000,-1.924938,9.239224,1.268927,-3.622446,4.651241,-3.508136
1380000,-2.030283,9.095572,1.546654,-4.080462,4.574905,-3.721877
1384000,-2.185906,8.923190,1.742979,-3.759850,5.078722,-3.721877
1388000,-2.111686,8.920795,1.807622,-3.332370,5.246661,-3.447068
1392000,-2.365471,8.798691,1.989582,-2.401072,4.819180,-3.309663
1396000,-2.432509,8.760384,1.924938,-1.622446,3.781013,-2.485235
1400000,-2.394202,8.901642,1.783680,-1.011759,2.941318,-2.179892
1404000,-2.284068,8.858546,1.572991,-1.179698,3.048188,-1.660808
1408000,-2.427721,8.896853,1.563414,-1.820919,2.605440,-0.866915
1412000,-2.439692,8.827422,1.577779,-1.759850,2.452768,-0.195159
1416000,-2.523489,8.848969,1.637634,-2.294202,1.078722,1.056749
1420000,-2.317587,8.899248,1.599327,-2.553744,1.048188,1.820108
1424000,-2.126051,8.995016,1.426944,-2.752217,1.567272,2.064383
1428000,-1.886631,9.021352,1.364695,-3.225499,2.498570,2.155986
1432000,-1.793257,9.121908,1.295263,-3.820919,3.063455,2.171253
1436000,-1.654393,9.167398,1.182736,-4.385805,4.040555,1.728505
1440000,-1.553837,9.246407,1.115698,-5.240767,4.330631,1.117818
1444000,-1.647211,9.129091,1.240196,-6.233133,2.956585,0.339192
1448000,-1.568202,9.088389,1.453280,-6.233133,2.834447,0.079650
1452000,-1.541866,9.172187,1.355118,-6.492675,2.132157,-0.378365
1456000,-1.539472,9.141062,1.484405,-7.011759,1.185592,-1.141724
1460000,-1.553837,9.272743,1.395820,-7.866721,1.185592,-1.721877
1464000,-1.754950,9.275137,1.563414,-8.340003,-0.356392,-2.134090
1468000,-1.711854,9.165004,1.817199,-8.477407,-1.119751,-2.454701
1472000,-1.829170,9.165004,2.035071,-8.156797,-1.562499,-2.088289
1476000,-2.099715,9.126697,2.372654,-7.149163,-2.753339,-2.042487
1480000,-2.224213,9.076419,2.664747,-5.790385,-3.073950,-1.691342
1484000,-2.178724,9.124303,2.906561,-4.614813,-3.028148,-1.385999
1488000,-2.190695,9.066842,2.961627,-3.332370,-2.768606,-0.897449
1492000,-2.389413,9.078813,3.263297,-1.866720,-2.600667,0.003314
1496000,-2.375048,9.095572,3.268085,0.423356,-2.280056,0.843009
1500000,-2.250550,9.162610,3.201048,1.980608,-0.997614,1.560566
1504000,-2.102109,9.251195,2.801216,2.805035,-0.020514,1.926978
1508000,-1.869871,9.418790,2.530671,3.492058,1.399333,1.881177
1512000,-1.580173,9.512163,2.130840,3.568394,2.803913,1.453696
1516000,-1.371878,9.658210,1.642422,3.064577,4.239028,0.537665
1520000,-1.187524,9.734824,1.235408,1.934806,4.559639,-1.202793
1524000,-1.084573,9.658210,1.137246,0.484424,3.979486,-2.836380
1528000,-1.067814,9.538500,1.110910,-0.660614,3.032921,-4.500503
1532000,-1.098939,9.493010,1.223437,-1.668247,2.208493,-5.920350
1536000,-1.103727,9.315839,1.144428,-2.217866,1.322997,-7.401266
1540000,-1.103727,9.167398,1.242591,-2.675881,-0.218988,-8.576838
1544000,-1.450886,8.992621,1.596933,-2.202598,-1.730438,-9.324930
1548000,-1.721431,8.834604,1.742979,-1.775118,-1.593034,-9.187526
1552000,-1.927332,8.793902,1.395820,-1.775118,-2.173186,-8.637908
1556000,-2.061408,8.698134,1.204283,-2.004125,-3.104484,-7.889815
1560000,-2.109292,8.760384,1.163582,-2.065194,-4.386927,-6.882182
1564000,-2.269703,8.717288,1.170765,-3.072828,-5.119751,-6.103556
1568000,-2.231396,8.746018,1.328782,-3.912522,-4.371659,-4.821113
1572000,-2.102109,8.796297,1.312023,-4.324736,-2.768606,-3.538671
1576000,-2.114080,8.920795,1.144428,-5.011759,-1.516698,-2.714243
1580000,-2.056619,8.980651,1.175553,-5.698782,-1.012881,-2.042487
1584000,-2.133234,8.930372,1.340753,-6.080462,-0.783873,-1.462335
1588000,-2.169147,8.920795,1.608904,-6.156797,-0.936545,-0.653174
1592000,-2.205060,8.894460,1.886631,-6.385805,-0.982347,-0.179892
1596000,-2.221819,8.887277,1.975216,-5.897255,-1.745705,0.171253
1600000,-2.267309,8.916007,1.889025,-5.286569,-2.325858,0.155986
1604000,-2.224213,8.973468,2.068590,-5.256034,-3.867843,0.308658
1608000,-2.104503,9.062054,2.159570,-4.401072,-4.554865,0.323925
1612000,-2.181118,9.138668,2.193089,-3.775118,-4.280056,0.278123
1616000,-1.951274,9.133880,2.116474,-3.408705,-3.318224,-0.134090
1620000,-1.862689,9.210494,2.126051,-3.042293,-2.218988,-0.469968
1624000,-1.735796,9.205706,2.001553,-3.118629,-0.509064,-1.248594
1628000,-1.862689,9.239224,1.889025,-3.561377,1.002386,-1.981419
1632000,-1.972822,9.229648,1.819593,-4.614813,1.368798,-2.637907
1636000,-2.114080,9.220071,1.807622,-5.683515,1.811547,-3.172258
1640000,-2.056619,9.133880,1.889025,-5.988858,2.803913,-3.370732
1644000,-2.193089,9.078813,1.884237,-6.187331,3.002386,-3.523403
1648000,-2.224213,9.119514,1.867477,-5.912522,3.292463,-3.538671
1652000,-2.202666,9.095572,1.848324,-6.217866,3.994753,-3.309663
1656000,-2.085350,9.100361,1.790863,-6.492675,4.406967,-3.508136
1660000,-2.075773,9.071630,1.814805,-6.110995,4.376432,-3.569205
1664000,-2.185906,8.978256,1.762132,-5.378171,3.735211,-3.340197
1668000,-2.183512,9.038112,1.666364,-5.439240,2.498570,-3.492869
1672000,-2.217031,9.074024,1.738190,-5.485042,1.429867,-3.370732
1676000,-2.205060,9.100361,1.582567,-5.530843,1.735211,-3.034854
1680000,-2.341529,9.021352,1.489193,-6.920156,1.200860,-2.882182
1684000,-2.636016,8.884883,2.066196,-7.408706,-0.982347,-2.042487
1688000,-2.607286,8.844181,2.463634,-5.790385,-1.684637,-0.775312
1692000,-2.722207,8.810662,2.652776,-4.859087,-2.829675,-0.042487
1696000,-2.650381,8.829816,2.679112,-3.714049,-3.409827,0.904078
1700000,-2.657564,8.947132,2.559402,-2.904888,-3.501430,1.728505
1704000,-2.511518,9.176975,2.370260,-3.011759,-3.364026,1.896444
1708000,-2.310405,9.246407,2.310405,-3.286568,-1.440362,1.972780
1712000,-2.264915,9.244013,2.334347,-3.698782,-0.234255,2.171253
1716000,-2.161964,9.136273,2.296039,-3.179698,1.658875,1.957513
1720000,-2.106898,9.138668,2.420538,-2.965957,2.559638,1.774307
1724000,-2.073379,9.143456,2.252944,-2.630080,3.399333,1.407894
1728000,-1.898602,9.157822,2.329558,-2.492675,5.368799,0.919345
1732000,-1.848324,9.133880,2.114080,-2.370538,6.620707,0.201787
1736000,-2.049437,9.148245,2.145205,-1.561377,5.582539,-0.286762
1740000,-2.054225,9.117120,2.114080,-0.935423,3.139791,-0.790579
1744000,-1.898602,9.165004,2.032677,-0.355270,1.490936,-1.172258
1748000,-1.860295,9.162610,1.845930,0.056943,0.956585,-1.599739
1752000,-1.867477,9.220071,1.568202,-0.156797,0.345898,-2.073022
1756000,-1.745373,9.253590,1.335965,-0.752217,0.391699,-2.836380
1760000,-1.678335,9.351752,1.077391,-2.156797,-0.020514,-3.828747
1764000,-1.558625,9.325416,1.046266,-3.515576,-0.615934,-4.378365
1768000,-1.690306,9.153033,1.201889,-4.385805,-0.264789,-5.248594
1772000,-1.709460,9.191340,1.130063,-5.439240,-0.447995,-5.615006
1776000,-1.800440,9.018958,1.312023,-6.492675,-0.539598,-5.996686
1780000,-1.841141,8.916007,1.486799,-6.935423,-0.264789,-6.454701
1784000,-1.991976,8.731653,1.544260,-7.393438,0.513837,-6.088289
1788000,-2.183512,8.729259,1.623269,-8.355270,-0.280056,-5.691342
1792000,-2.272097,8.516175,2.075773,-7.530843,-1.302957,-4.790579
1796000,-2.363077,8.418014,2.367866,-6.095729,-1.883110,-3.645541
1800000,-2.327164,8.429984,2.552219,-4.553743,-1.699904,-2.683709
1804000,-2.250550,8.470686,2.506729,-3.164430,-1.333492,-1.813480
1808000,-2.166753,8.556877,2.389413,-2.278934,0.116890,-1.095922
1812000,-1.948880,8.662222,1.891419,-2.248400,1.689409,-1.004319
1816000,-1.817199,8.856153,1.431733,-3.317102,3.322997,-1.111190
1820000,-1.726219,8.971074,1.173159,-4.767485,3.536737,-1.721877
1824000,-1.738190,9.030929,1.065420,-6.126263,3.246661,-1.966151
1828000,-1.936909,8.896853,1.417367,-6.523210,1.735211,-2.378365
1832000,-1.996764,8.827422,1.908179,-6.172065,0.086356,-2.576838
1836000,-2.138022,8.762778,2.315193,-4.935423,-0.951812,-2.485235
1840000,-2.106898,8.820239,2.489970,-3.958324,-2.005247,-2.408900
1844000,-2.121263,8.834604,2.480393,-2.981224,-3.043415,-2.531037
1848000,-2.310405,8.968679,2.477999,-2.217866,-4.173186,-2.821113
1852000,-2.430115,8.997410,2.233790,-2.538476,-4.921278,-3.004319
1856000,-2.530671,9.100361,2.116474,-2.965957,-5.898377,-2.989052
1860000,-2.612074,9.126697,2.102109,-3.194965,-6.295323,-2.637907
1864000,-2.619257,9.102755,2.020706,-3.714049,-6.799140,-2.195159
1868000,-2.509123,9.133880,2.042254,-3.973591,-5.409827,-1.782945
1872000,-2.430115,9.167398,2.286463,-4.263667,-3.944179,-1.584472
1876000,-2.377442,9.150639,2.475605,-4.156797,-1.867843,-1.370732
1880000,-2.260126,9.186552,2.288857,-3.851454,0.513837,-1.034854
1884000,-2.032677,9.200917,2.200271,-3.988858,2.742844,-1.370732
1888000,-2.008735,9.193734,2.032677,-4.294202,4.620707,-1.874548
1892000,-1.944092,9.229648,1.841141,-5.256034,5.536737,-2.134090
1896000,-1.989582,9.236830,1.745373,-6.370538,5.582539,-2.836380
1900000,-2.059013,9.085996,1.980005,-7.240767,5.445135,-3.095922
1904000,-2.183512,9.093178,1.980005,-7.408706,4.468035,-3.034854
1908000,-2.190695,9.059659,2.209848,-6.920156,2.529104,-2.531037
1912000,-2.169147,9.009381,2.205060,-6.569011,2.758112,-1.935617
1916000,-2.231396,8.987833,1.980005,-6.248401,1.842081,-1.920350
1920000,-2.308010,8.868123,2.303222,-5.881988,-0.386927,-1.065388
1924000,-2.231396,8.899248,2.755726,-4.889622,-1.073950,-0.531037
1928000,-2.149993,8.884883,2.853889,-3.256034,-1.058682,-0.057755
1932000,-2.214637,8.966286,2.717419,-1.607178,-1.379293,0.919345
1936000,-2.080561,9.042900,2.545036,-0.278934,-0.661736,1.453696
1940000,-2.015918,9.114726,2.298434,0.591295,0.422234,2.018581
1944000,-1.896208,9.279925,2.080561,0.285951,0.315363,2.033848
1948000,-1.793257,9.332599,1.975216,-0.507942,0.040554,1.530032
1952000,-1.731008,9.466674,1.898602,-1.362904,-0.112117,1.285757
1956000,-1.556231,9.504981,1.766921,-2.416339,-0.829675,0.110184
1960000,-1.379060,9.476251,1.793257,-3.607178,-1.913644,-1.080655
1964000,-1.410185,9.368511,1.941698,-4.553743,-2.066316,-2.027220
1968000,-1.398214,9.409213,2.003947,-5.057561,-1.867843,-3.172258
1972000,-1.496376,9.282320,2.075773,-5.240767,-2.005247,-4.103556
1976000,-1.594538,9.193734,2.015918,-5.576645,-2.509064,-4.897449
1980000,-1.606509,9.090784,2.169147,-5.194965,-2.310591,-5.523403
1984000,-1.675941,9.052477,2.248155,-4.706415,-1.593034,-5.645541
1988000,-1.786075,9.026140,2.154782,-4.538477,-1.440362,-6.073021
1992000,-2.023100,8.937555,2.212242,-4.385805,-1.455629,-6.103556
1996000,-2.193089,8.757990,2.319981,-4.416339,-1.944179,-5.920350
