time_us,ax,ay,az,gx,gy,gz
0,-1.125275,-1.522712,8.317456,-0.645346,-0.203721,1.545299
4000,-1.048660,-1.498770,8.310274,-1.240766,-0.035782,1.514765
8000,-0.995988,-1.395820,8.367735,-1.714049,0.223760,1.804841
12000,-0.914585,-1.405396,8.262390,-2.233133,0.483302,1.926978
16000,-0.936133,-1.412579,8.224083,-2.660614,0.086356,1.774307
20000,-0.940921,-1.352724,8.298303,-2.843820,-1.196087,1.743772
24000,-0.993594,-1.391031,8.391677,-2.645346,-2.096850,1.316291
28000,-0.924162,-1.369483,8.547300,-1.744583,-2.524331,1.484230
32000,-0.945710,-1.367089,8.599973,-1.210232,-2.631201,1.239955
36000,-0.955287,-1.340753,8.616732,-0.462140,-2.402194,0.843009
40000,-1.015141,-1.381454,8.614338,0.102745,-1.684637,0.919345
44000,-1.074997,-1.391031,8.576031,0.408088,-1.272423,0.980413
48000,-1.170765,-1.340753,8.516175,0.331753,-1.180820,1.117818
52000,-1.199495,-1.443704,8.614338,0.072211,-0.738072,1.316291
56000,-1.154005,-1.431733,8.492233,0.087478,-0.295324,1.606368
60000,-1.218649,-1.438915,8.516175,0.072211,-0.249522,1.560566
64000,-1.175553,-1.414973,8.465898,-0.034660,-0.463263,1.881177
68000,-1.163582,-1.434127,8.441956,-0.202598,-0.844942,1.682703
72000,-1.137246,-1.498770,8.485051,-0.019392,-1.043415,1.453696
76000,-1.127669,-1.412579,8.456321,-0.278934,-1.226621,1.117818
80000,-1.211466,-1.436521,8.458714,-0.431606,-2.157919,0.995681
84000,-1.161188,-1.486799,8.475474,-0.492675,-3.150285,0.598734
88000,-1.233014,-1.493982,8.465898,-0.736950,-3.730438,0.461329
92000,-1.242591,-1.582567,8.611943,-0.981224,-4.371659,0.705604
96000,-1.230620,-1.632846,8.453926,-1.164430,-4.722805,0.781940
100000,-1.261744,-1.618480,8.647857,-1.423972,-4.936545,0.858276
104000,-1.276109,-1.680730,8.645462,-1.332370,-5.837308,1.148352
108000,-1.206678,-1.742979,8.887277,-0.599545,-5.913644,1.423162
112000,-1.187524,-1.735796,8.980651,0.224882,-5.791507,1.163620
116000,-1.086968,-1.769315,9.047688,0.759233,-5.302957,1.652169
120000,-1.175553,-1.802834,9.184157,1.598928,-4.035782,1.697971
124000,-1.151611,-1.711854,9.093178,2.331753,-2.936545,1.865910
128000,-1.106121,-1.721431,9.081207,3.140913,-2.310591,2.049116
132000,-1.173159,-1.685518,8.944737,3.522592,-2.356392,2.308658
136000,-1.086968,-1.735796,8.856153,3.522592,-2.982346,2.155986
140000,-1.094150,-1.702277,8.686164,3.553127,-3.501430,2.369726
144000,-1.039083,-1.608904,8.748413,2.942440,-4.066316,2.568200
148000,-0.940921,-1.599327,8.671799,2.820302,-4.173186,2.614001
152000,-0.895431,-1.584962,8.796297,2.056943,-3.730438,2.568200
156000,-0.787692,-1.508347,8.939949,2.240149,-2.570133,2.583467
160000,-0.720655,-1.546654,8.913613,2.637096,-1.593034,2.675070
164000,-0.603339,-1.470040,8.911219,3.354653,-0.264789,2.400261
168000,-0.615310,-1.441309,8.851364,3.385188,1.643608,2.247589
172000,-0.675165,-1.386243,8.827422,3.736333,3.567272,2.003314
176000,-0.742203,-1.412579,8.700529,3.843203,4.574905,1.926978
180000,-0.751779,-1.371878,8.650250,3.950073,4.910783,2.049116
184000,-0.751779,-1.376666,8.662222,4.392821,5.170325,1.988047
188000,-0.711078,-1.359907,8.585608,4.530226,5.887883,2.125452
192000,-0.706290,-1.403002,8.485051,4.423356,6.254295,2.064383
196000,-0.727837,-1.312023,8.300697,4.224883,7.200860,1.835375
200000,-0.768539,-1.374272,8.336611,3.950073,7.078722,1.697971
204000,-0.792481,-1.335965,8.336611,3.507325,6.758111,1.239955
208000,-0.799663,-1.422156,8.173804,2.942440,6.147425,0.995681
212000,-0.775721,-1.398214,8.257602,2.270684,5.643608,0.705604
216000,-0.794875,-1.498770,8.317456,1.965340,5.231394,0.644536
220000,-0.948104,-1.414973,8.269572,1.675264,4.345898,0.705604
224000,-0.859518,-1.474828,8.324639,1.217249,3.368799,0.507131
228000,-0.787692,-1.426944,8.355764,0.820302,3.032921,0.247589
232000,-0.749385,-1.455675,8.231265,0.743966,2.712310,-0.042487
236000,-0.830788,-1.422156,8.283937,0.774501,1.903150,-0.393632
240000,-0.845153,-1.448492,8.432379,0.606562,0.910783,-0.607373
244000,-0.823605,-1.510741,8.499416,0.637096,0.483302,-0.790579
248000,-0.873884,-1.527501,8.477868,0.911905,0.300096,-0.989052
252000,-0.885855,-1.544260,8.537724,1.385188,0.132157,-0.897449
256000,-0.830788,-1.522712,8.698134,1.843203,0.452768,-0.897449
260000,-0.835576,-1.534683,8.927979,2.469157,1.277195,-1.080655
264000,-0.837971,-1.561020,8.796297,2.774501,2.269562,-1.019587
268000,-0.914585,-1.549049,8.707711,2.820302,3.139791,-0.943251
272000,-0.881066,-1.498770,8.738836,3.186715,3.674142,-1.019587
276000,-0.993594,-1.534683,8.702923,3.018775,4.406967,-0.668442
280000,-0.940921,-1.482011,8.516175,2.667631,4.422234,-0.408900
284000,-0.869095,-1.549049,8.520964,2.453890,5.200860,-0.485235
288000,-0.883460,-1.489193,8.406042,1.965340,6.559639,-0.439434
292000,-0.962469,-1.441309,8.236053,1.446256,6.345898,-0.424167
296000,-0.871489,-1.369483,8.441956,0.820302,5.781013,-0.302029
300000,-0.936133,-1.335965,8.506598,0.453890,5.781013,-0.622640
304000,-0.928950,-1.429338,8.556877,0.392821,5.261929,-0.637907
308000,-0.921768,-1.424550,8.717288,1.201982,4.758111,-0.271495
312000,-0.926556,-1.479617,9.294291,2.957707,3.384066,-0.408900
316000,-0.665588,-1.527501,9.710882,5.690531,3.735211,-0.378365
320000,-0.644040,-1.549049,9.674969,8.011142,4.422234,-1.248594
324000,-0.596156,-1.486799,9.799467,9.263050,7.200860,-1.859281
328000,-0.861913,-1.539472,9.677363,11.324119,10.025287,-2.073022
332000,-1.043872,-1.553837,9.579201,13.079844,10.666508,-2.271495
336000,-1.084573,-1.539472,9.339781,13.965341,11.857347,-1.874548
340000,-1.197101,-1.551443,9.018958,14.331753,12.269562,-1.523403
344000,-1.302446,-1.541866,8.700529,14.148546,11.628340,-1.279129
348000,-1.319205,-1.486799,8.578424,13.705798,11.017653,-0.729510
352000,-1.230620,-1.460463,8.418014,12.331753,10.544371,-0.836380
356000,-1.067814,-1.350330,8.243237,11.064577,9.582539,-0.927984
360000,-0.940921,-1.340753,8.303091,9.400455,8.697042,-1.279129
364000,-0.931344,-1.367089,8.248025,8.179081,7.353531,-1.996686
368000,-0.938527,-1.391031,8.300697,6.805035,5.735211,-2.164625
372000,-0.907402,-1.333570,8.757990,6.652363,4.345898,-2.561571
376000,-0.895431,-1.388637,8.985439,6.988241,4.132157,-3.431800
380000,-0.998382,-1.371878,8.932767,7.675264,3.521470,-3.859281
384000,-1.137246,-1.501164,9.038112,8.118012,3.460402,-4.210426
388000,-1.216254,-1.496376,9.052477,8.972974,4.010020,-4.042487
392000,-1.465251,-1.589750,8.961497,9.354653,5.124524,-3.431800
396000,-1.534683,-1.568202,8.700529,9.583661,6.055821,-2.805846
400000,-1.575385,-1.541866,8.580819,9.369921,6.116890,-1.584472
404000,-1.553837,-1.604115,8.791509,9.980608,5.292463,-0.836380
408000,-1.414973,-1.683124,9.265560,11.217249,3.429867,-0.408900
412000,-1.206678,-1.750161,9.935937,13.492058,2.910783,-0.179892
416000,-1.134852,-1.790863,10.177752,16.682898,3.689409,-0.393632
420000,-1.173159,-1.824382,10.297462,20.270685,4.758111,-0.500503
424000,-1.254562,-1.812411,10.208876,23.705799,5.155058,-0.531037
428000,-1.491588,-1.900996,10.098742,26.453890,5.231394,-0.195159
432000,-1.632846,-1.893813,9.904813,28.469158,4.880249,0.430795
436000,-1.637634,-1.893813,10.005369,30.560760,5.063455,1.499497
440000,-1.812411,-1.917756,9.931149,33.476791,5.353531,2.675070
444000,-1.635240,-1.702277,9.732430,34.163815,8.452767,4.079650
448000,-1.704672,-1.728614,9.385271,33.904270,9.689409,5.209421
452000,-1.716643,-1.714248,9.473856,34.194347,11.017653,6.308658
456000,-1.563414,-1.594538,9.548077,34.972973,13.597806,7.331559
460000,-1.592144,-1.525106,9.521740,35.751598,14.788646,8.736138
464000,-1.436521,-1.431733,9.718064,37.675266,15.658875,9.636902
468000,-1.314417,-1.458069,10.074800,40.621830,15.643608,10.461329
472000,-1.204283,-1.477222,10.817003,45.461525,16.529104,11.514764
476000,-1.029507,-1.517924,11.528081,52.637096,17.445133,11.804840
480000,-0.766145,-1.364695,11.291056,58.713432,19.124523,10.843008
484000,-0.703895,-1.391031,11.382035,63.629463,22.010019,9.881176
488000,-0.988805,-1.412579,11.061212,68.347023,24.727577,9.087283
492000,-1.338359,-1.276109,10.785878,71.278320,25.628340,8.262856
496000,-1.491588,-1.323994,10.658986,72.484428,24.437500,8.155986
500000,-1.721431,-1.259350,9.981427,75.995872,23.399332,8.522398
504000,-1.838747,-1.228225,9.500193,75.156181,18.361164,8.491863
508000,-1.814805,-1.098939,9.138668,74.591293,16.498569,8.552932
512000,-1.824382,-0.998382,8.997410,73.278320,15.170325,8.614001
516000,-1.824382,-0.962469,8.935161,71.889008,12.834447,8.629268
520000,-1.821988,-0.821211,8.872911,71.018776,11.506203,8.797207
524000,-1.745373,-0.907402,8.992621,70.285950,10.529103,9.652169
528000,-1.613692,-0.871489,9.397242,71.064575,10.361164,10.049115
532000,-1.496376,-0.816423,9.967062,72.972977,10.742844,10.919344
536000,-1.359907,-0.885855,10.654198,76.652367,12.101623,11.331558
540000,-1.218649,-0.881066,11.063606,82.087479,15.109256,11.774306
544000,-1.283292,-0.818817,11.288661,85.766869,20.727577,11.652169
548000,-1.225831,-1.125275,11.786655,88.484428,28.361164,11.972779
552000,-1.807622,-0.854730,11.425131,93.537857,31.322996,12.201787
556000,-1.874660,-0.962469,12.004527,97.171448,31.552004,13.239955
560000,-1.728614,-1.127669,13.007698,104.896637,33.032921,14.155986
564000,-1.525106,-1.194707,13.716381,114.621826,35.933685,14.675070
568000,-1.379060,-1.142034,13.783420,124.927170,40.803913,15.010947
572000,-1.364695,-1.130063,13.395558,134.972961,45.719944,14.843008
576000,-1.594538,-1.115698,12.981361,144.667618,47.292461,14.583467
580000,-1.754950,-1.053449,12.801797,153.675262,47.368797,14.278123
584000,-1.505953,-1.029507,12.861651,160.637085,53.536736,14.781940
588000,-2.018312,-1.053449,12.677298,169.629456,51.750477,15.530032
592000,-2.078167,-1.065420,12.392388,178.545486,46.254295,16.140718
596000,-1.726219,-1.216254,14.164097,190.927170,41.536736,16.781940
600000,-1.082179,-1.520318,16.168043,209.659988,46.864983,16.659803
604000,-1.106121,-1.486799,15.993267,226.545486,56.574905,16.644537
608000,-1.532289,-1.479617,14.592659,240.179077,54.773376,15.514764
612000,-1.905785,-1.290475,12.785037,247.873734,53.658875,14.125451
616000,-2.561796,-1.201889,11.894394,250.972961,51.872616,14.262856
620000,-2.803610,-1.194707,11.784261,251.415710,47.964218,15.163619
624000,-2.272097,-1.197101,13.055582,252.957703,54.758110,18.033850
628000,-2.300828,-1.177947,13.151350,259.751587,64.406967,21.026215
632000,-2.384625,-0.962469,11.664551,266.056946,71.826820,24.369726
636000,-2.710236,-0.586579,9.133880,268.942444,73.994759,26.461330
640000,-2.964022,-0.059855,7.127539,266.041687,73.903152,29.010948
644000,-3.315969,0.373495,6.483498,260.316498,71.613075,31.926979
648000,-2.952051,0.588974,6.732495,254.881363,68.941322,35.117817
652000,-2.583344,0.995988,6.610391,250.743958,68.834450,37.133087
656000,-2.506729,1.505953,5.463568,244.911896,65.429871,37.728504
660000,-2.286463,1.953669,4.228160,237.888992,61.826813,37.911713
664000,-2.099715,2.504335,3.349488,229.186707,60.849712,37.026215
668000,-2.166753,2.887407,2.947262,218.850830,58.071087,36.736137
672000,-2.336741,2.997540,3.907337,210.637085,50.788647,37.255222
676000,-2.054225,3.076549,4.953603,206.881363,45.078720,37.468964
680000,-1.668759,3.150769,5.556942,204.026398,39.964218,36.278126
684000,-1.180341,3.375824,5.394136,200.820297,38.574905,33.392628
688000,-1.187524,3.591303,4.867412,196.163803,39.368797,30.247589
692000,-1.388637,3.667917,4.783615,192.545486,38.651241,27.621635
696000,-1.515530,3.713407,5.808333,188.026398,38.208492,25.636902
700000,-1.362301,3.287239,8.573636,188.652359,45.261929,25.530033
704000,-1.661576,2.681506,10.342952,198.560760,49.613071,25.911713
708000,-1.515530,2.365471,10.649409,208.988235,54.223759,25.056749
712000,-1.936909,2.066196,11.106702,218.209610,59.338264,24.278124
716000,-3.078943,1.685518,11.494562,229.369919,58.345898,24.369726
720000,-3.813963,1.503559,11.918336,237.232513,55.643608,26.873545
724000,-3.974375,1.156399,12.028469,248.377548,59.185593,31.285757
728000,-4.556166,1.446098,10.764331,256.316498,65.903152,36.537666
732000,-5.066131,1.766921,8.317456,259.980621,66.071091,41.682705
736000,-5.506664,2.229002,6.244078,260.591309,65.964218,48.140720
740000,-5.552154,2.829947,4.390966,257.660004,67.384071,54.995682
744000,-5.377377,3.538630,2.753332,251.064575,70.239029,62.186520
748000,-5.516241,3.988740,1.640028,243.522583,69.322998,69.667435
752000,-4.893748,4.501099,1.194707,235.812668,65.399338,75.865913
756000,-4.046201,4.807557,1.127669,227.873734,66.452774,81.072014
760000,-3.452439,5.070919,1.448492,219.705795,68.071091,84.369728
764000,-2.633622,5.233725,2.013524,212.056931,70.269562,86.308655
768000,-2.054225,5.518635,2.511518,204.743958,74.101624,86.812477
772000,-1.568202,5.779603,2.296039,197.385178,78.101624,86.079651
776000,-1.379060,6.042965,1.750161,189.369919,78.315369,83.926979
780000,-1.108515,6.411672,1.728614,181.064575,77.292465,81.575836
784000,-1.053449,6.560112,1.508347,174.743958,77.231400,79.148354
788000,-1.137246,6.703765,1.300052,169.186707,76.330635,76.247589
792000,-1.314417,6.852205,1.122881,163.690521,74.040558,74.110184
796000,-1.405396,6.892907,1.381454,158.285950,71.811546,71.881180
800000,-1.364695,6.943185,1.369483,152.545486,71.597809,70.079651
804000,-1.364695,7.098808,1.491588,146.423355,71.933685,68.522400
808000,-1.460463,7.180211,1.429338,140.713425,74.040558,67.560570
812000,-1.668759,7.117962,1.458069,135.950073,72.849716,66.446060
816000,-1.980005,7.070077,1.915361,132.362274,69.490936,66.217056
820000,-2.070984,7.158663,1.644817,130.850830,66.529106,65.850639
824000,-2.145205,7.398083,0.960075,127.263054,63.384064,65.530029
828000,-2.185906,7.642292,0.399832,122.652367,57.613071,64.461327
832000,-2.200271,7.929596,-0.110133,116.530228,50.758110,63.056751
836000,-2.042254,8.255207,-0.246603,110.850838,46.758110,61.514767
840000,-1.654393,8.571242,-0.694318,104.927170,44.910782,60.018581
844000,-1.309628,8.796297,-1.189918,98.347023,40.956585,57.728504
848000,-1.395820,8.717288,-0.960075,90.866104,35.582539,54.736137
852000,-1.379060,8.535329,0.529119,85.553131,32.574905,52.262856
856000,-1.302446,8.427590,1.635240,83.721069,34.300095,50.843010
860000,-1.312023,8.418014,1.692701,82.072212,34.712311,48.934612
864000,-1.278504,8.391677,1.687912,80.759232,31.490936,46.003315
868000,-1.309628,8.370130,1.829170,78.774498,30.620707,43.346825
872000,-1.137246,8.470686,1.917756,76.392822,31.460402,40.583466
876000,-1.048660,8.576031,1.764527,75.064575,33.872616,38.354462
880000,-1.034295,8.681376,1.426944,74.652367,36.300095,36.644535
884000,-0.931344,8.872911,0.840365,74.133278,38.727577,34.415527
888000,-0.715866,9.045294,0.033519,71.843201,40.956585,31.759041
892000,-0.699107,9.069236,-0.517148,68.209618,41.826813,28.507132
896000,-0.744597,9.069236,-0.799663,64.041672,40.941319,25.102551
900000,-0.972046,8.954314,-0.991199,59.721066,37.735210,21.942245
904000,-1.240196,8.784326,-0.914585,54.056946,33.093990,18.736139
908000,-1.742979,8.358158,0.306458,48.499691,26.788645,17.133085
912000,-1.572991,8.034941,1.460463,48.438625,26.452768,16.614002
916000,-1.620875,7.960721,1.233014,48.102745,26.208492,15.606368
920000,-1.857901,7.939173,1.010353,47.171448,23.353531,14.552932
924000,-1.951274,7.857770,0.998382,47.385189,21.964218,14.186520
928000,-2.063802,7.824251,1.077391,46.621830,23.002386,14.415527
932000,-2.324770,7.922413,0.986411,44.438625,24.483301,15.148352
936000,-2.296039,8.006210,0.840365,42.179081,26.666508,16.430796
940000,-2.238579,8.226477,0.433351,39.614197,29.445133,17.377361
944000,-2.250550,8.257602,0.122104,37.568394,31.246660,18.980413
948000,-2.157176,8.377312,-0.052672,36.285954,31.964218,20.217054
952000,-2.300828,8.508993,-0.251391,34.118011,30.742844,21.545300
956000,-2.358289,8.453926,-0.210690,32.637096,27.246660,22.843010
960000,-2.133234,8.480263,-0.059855,31.201982,25.475668,23.255222
964000,-1.845930,8.559271,0.098162,28.209616,24.376432,23.407894
968000,-1.678335,8.690952,0.486023,25.568394,22.101622,22.568201
972000,-1.283292,8.418014,0.984017,26.163815,20.300097,21.484230
976000,-1.671153,8.635885,1.359907,26.911905,14.269562,20.751406
980000,-1.165976,8.956709,0.117316,26.545494,17.567272,20.766674
984000,-0.826000,9.042900,-0.572214,23.751600,11.842080,17.682705
988000,-0.500388,9.270349,-0.612916,20.560760,10.590172,15.362092
992000,-0.256180,9.275137,-0.349553,17.522593,12.819180,13.087283
996000,-0.105345,9.277532,-0.172383,14.331753,14.376431,10.736138
1000000,0.074220,9.299079,0.031125,12.209615,18.239027,7.957512
1004000,0.052672,9.299079,0.009577,10.881371,21.826813,5.881177
1008000,-0.031125,9.200917,-0.234632,9.064577,23.643608,3.331558
1012000,-0.414197,8.925584,0.174777,7.751600,22.269562,1.117818
1016000,-1.137246,8.643068,1.043872,8.438622,20.086355,0.598734
1020000,-1.752556,8.451532,1.264138,9.904272,17.368797,1.591100
1024000,-2.176329,8.432379,1.010353,10.331753,12.788646,2.461329
1028000,-2.396596,8.439561,0.560243,9.751600,8.697042,3.759039
1032000,-2.504335,8.516175,0.993594,7.339386,6.513837,5.820108
1036000,-2.339135,8.480263,1.374272,7.598928,8.208493,8.217054
1040000,-2.147599,8.710106,0.854730,7.125646,8.147424,9.667436
1044000,-1.886631,9.023746,0.644040,5.186715,6.635974,9.957512
1048000,-1.455675,9.198523,0.344765,3.400455,7.124524,9.591100
1052000,-1.314417,9.265560,0.409408,1.568394,5.506203,8.614001
1056000,-1.312023,9.375694,0.895431,0.774501,4.162692,8.217054
1060000,-1.151611,9.440337,1.254562,1.476791,5.689409,7.392627
1064000,-0.986411,9.428367,1.544260,1.659997,8.651241,6.293391
1068000,-1.027112,9.368511,1.417367,2.316485,10.987119,5.194154
1072000,-1.079785,9.493010,1.489193,2.499691,12.605439,3.713238
1076000,-1.106121,9.433155,1.417367,2.789768,12.559638,2.491864
1080000,-1.276109,9.509769,1.096544,2.652363,11.536737,0.949879
1084000,-1.254562,9.533711,0.845153,1.736333,9.063455,-0.897449
1088000,-1.407791,9.514558,0.646434,0.820302,6.284829,-1.859281
1092000,-1.345541,9.533711,0.806846,0.240150,3.781013,-3.187526
1096000,-1.120486,9.399636,1.185130,0.194348,2.651241,-4.149358
1100000,-1.060631,9.179369,1.546654,1.492058,3.139791,-5.156991
1104000,-1.046266,9.153033,1.702277,3.186715,3.750478,-6.302029
1108000,-0.957681,9.081207,1.584962,5.186715,4.361165,-7.752411
1112000,-1.017536,9.172187,1.335965,5.598928,4.437501,-9.263862
1116000,-1.328782,9.109938,0.962469,3.598928,3.948951,-10.760045
1120000,-1.752556,8.858546,1.407791,1.125646,2.666508,-10.973785
1124000,-2.070984,8.760384,1.903390,0.820302,2.758112,-10.317297
1128000,-2.267309,8.820239,1.788469,1.766867,2.529104,-9.706610
1132000,-2.461239,8.741230,1.467646,1.950073,1.887883,-8.668442
1136000,-2.782062,8.841787,1.132457,1.812669,1.506203,-7.599739
1140000,-3.026271,8.820239,1.194707,0.499691,0.483302,-5.935617
1144000,-3.208230,8.655039,1.826776,0.499691,0.223760,-3.141724
1148000,-3.584120,8.676587,1.929727,1.400455,-0.783873,-0.515770
1152000,-3.567361,8.741230,1.884237,1.614195,-2.615934,1.820108
1156000,-3.397372,8.841787,2.035071,1.797401,-4.447995,3.835375
1160000,-3.119645,8.920795,2.059013,2.301218,-4.631201,5.820108
1164000,-2.595315,9.102755,1.987187,2.499691,-3.791507,6.552933
1168000,-2.243367,9.208099,1.862689,2.347020,-1.501431,6.568200
1172000,-2.035071,9.394848,1.656788,2.408089,0.864982,6.323925
1176000,-1.637634,9.557653,1.632846,1.736333,2.529104,5.331559
1180000,-1.448492,9.655815,1.606509,1.751600,5.200860,3.957513
1184000,-1.364695,9.639056,1.498770,1.415722,6.468035,2.293390
1188000,-1.187524,9.636662,1.254562,0.927172,7.674142,0.262856
1192000,-1.139640,9.639056,1.197101,-0.065194,8.758111,-1.966151
1196000,-1.086968,9.722853,0.943315,-1.332370,8.681775,-3.905083
1200000,-1.070208,9.651027,0.694318,-2.904888,8.406966,-6.103556
1204000,-1.161188,9.567230,0.373495,-5.103362,7.811547,-7.645541
1208000,-1.333570,9.421184,0.560243,-7.256034,6.147425,-8.912717
1212000,-1.704672,9.165004,0.694318,-8.736950,3.155058,-9.523404
1216000,-1.896208,9.071630,0.859518,-8.935423,-0.722805,-9.187526
1220000,-1.984793,8.844181,1.235408,-9.042294,-4.051049,-9.095922
1224000,-2.348712,8.657434,1.721431,-8.370538,-7.211354,-7.599739
1228000,-2.475605,8.492233,2.315193,-6.813286,-10.356393,-6.057755
1232000,-2.592921,8.379706,2.549825,-4.798018,-11.867843,-4.607373
1236000,-2.686294,8.329428,2.896984,-2.767484,-13.211354,-2.469968
1240000,-2.564190,8.501810,2.875436,-0.278934,-11.867843,-0.668442
1244000,-2.319981,8.789114,2.511518,1.553127,-8.814408,0.858276
1248000,-2.255338,9.045294,1.982399,1.766867,-6.386927,1.362093
1252000,-2.118869,9.275137,1.695095,1.232516,-3.562499,1.911711
1256000,-2.035071,9.363723,1.618480,0.118012,-0.936545,1.621635
1260000,-2.082955,9.488221,1.429338,-0.859087,-0.295324,1.316291
1264000,-2.133234,9.454702,1.422156,-1.576644,-0.493797,0.522398
1268000,-2.039860,9.464279,1.577779,-3.011759,0.101623,-0.042487
1272000,-2.118869,9.469068,1.458069,-3.744583,0.391699,-0.897449
1276000,-2.128445,9.423578,1.553837,-4.798018,0.101623,-1.782945
1280000,-2.142811,9.382876,1.690306,-5.546110,0.025287,-2.424167
1284000,-2.159570,9.409213,1.786075,-5.729317,0.635974,-2.805846
1288000,-2.308010,9.311050,1.771709,-5.347637,-0.188453,-3.065388
1292000,-2.351106,9.054871,2.116474,-4.752217,-1.196087,-3.004319
1296000,-2.449268,8.995016,2.377442,-2.889621,-1.012881,-2.439434
1300000,-2.540248,8.995016,2.130840,-1.027026,-0.478530,-1.615006
1304000,-2.573767,8.956709,2.047042,0.072211,-0.768606,-1.050121
1308000,-2.518700,9.018958,1.920150,0.637096,-1.409827,-0.347831
1312000,-2.530671,9.050082,1.991976,1.461524,-1.440362,0.323925
1316000,-2.442086,9.074024,1.766921,2.011142,-1.409827,1.209421
1320000,-2.346318,9.153033,1.467646,2.255417,-1.654102,1.407894
1324000,-2.248155,9.220071,1.309628,1.766867,-2.035782,1.682703
1328000,-2.231396,9.318233,1.259350,1.049310,-2.844942,1.636902
1332000,-2.078167,9.375694,1.197101,-0.462140,-3.333492,1.407894
1336000,-1.989582,9.339781,1.261744,-2.141530,-3.806774,0.720871
1340000,-1.991976,9.224859,1.680730,-2.401072,-4.112117,0.720871
1344000,-1.982399,9.038112,1.953669,-1.759850,-4.906011,0.476597
1348000,-1.984793,9.050082,1.972822,-0.828552,-5.348759,0.171253
1352000,-1.855506,8.951921,2.066196,0.682898,-5.760972,-0.103556
1356000,-1.786075,9.018958,1.996764,1.568394,-5.516697,-0.592106
1360000,-1.726219,9.150639,1.843535,1.721066,-3.760972,-0.729510
1364000,-1.668759,9.193734,1.417367,1.125646,-2.341125,-1.523403
1368000,-1.968034,9.148245,1.400608,-0.492675,-2.570133,-1.752411
1372000,-2.542642,8.896853,1.817199,-0.736950,-3.135018,-0.912716
1376000,-2.667141,8.777143,1.798046,-0.462140,-3.165553,0.430795
1380000,-2.813187,8.772355,1.608904,-0.645346,-3.531965,1.713238
1384000,-2.870648,8.796297,1.467646,0.347020,-4.509064,3.316291
1388000,-2.722207,8.947132,1.345541,0.743966,-6.005247,4.415528
1392000,-2.444480,9.097966,1.307234,-0.095728,-6.997613,5.362093
1396000,-2.217031,9.275137,0.835576,-1.591912,-7.226621,4.904078
1400000,-2.020706,9.260772,0.967257,-4.385805,-8.829675,4.293391
1404000,-1.956063,9.337387,1.254562,-4.904889,-9.562500,3.697971
1408000,-1.965640,9.260772,1.510741,-5.210233,-9.226622,2.965146
1412000,-1.963245,9.311050,1.575385,-5.607179,-8.906011,2.507131
1416000,-1.781286,9.287108,1.587356,-5.347637,-6.722805,2.201787
1420000,-1.692701,9.299079,1.719037,-4.996491,-3.516698,1.743772
1424000,-1.537078,9.248801,1.640028,-5.027026,-1.883110,0.843009
1428000,-1.592144,9.260772,1.587356,-5.622446,-0.875476,-0.027220
1432000,-1.577779,9.234436,1.477222,-6.660614,0.666508,-0.912716
1436000,-1.601721,9.267955,1.264138,-8.034659,1.322997,-1.752411
1440000,-1.726219,9.176975,1.197101,-8.233133,1.719944,-2.164625
1444000,-1.750161,9.119514,1.362301,-7.683515,1.200860,-1.950884
1448000,-1.898602,8.997410,1.376666,-7.469774,0.651241,-1.844014
1452000,-1.821988,9.011775,1.434127,-7.225499,-0.218988,-1.813480
1456000,-1.692701,9.021352,1.472434,-7.179698,-0.005247,-1.920350
1460000,-1.709460,9.014170,1.561020,-7.698782,-0.051049,-1.935617
1464000,-1.754950,8.971074,1.719037,-7.393438,0.116890,-1.966151
1468000,-1.886631,8.925584,1.769315,-6.370538,-0.356392,-1.599739
1472000,-2.090138,8.951921,1.745373,-5.393438,-2.341125,-1.324930
1476000,-2.193089,8.908825,1.812411,-4.569011,-4.524331,-0.744777
1480000,-2.171541,8.947132,2.020706,-3.347636,-5.745705,-0.225693
1484000,-2.209848,8.985439,2.085350,-2.675881,-5.547232,0.354459
1488000,-2.121263,9.121908,1.917756,-3.210232,-5.028148,0.751406
1492000,-1.991976,9.212888,1.769315,-3.622446,-3.745705,0.934612
1496000,-1.807622,9.361329,1.563414,-4.523210,-2.707537,0.430795
1500000,-1.783680,9.442732,1.458069,-5.133897,-1.699904,-0.073022
1504000,-1.726219,9.504981,1.403002,-6.385805,-1.501431,-1.065388
1508000,-1.716643,9.375694,1.587356,-7.485042,-1.028148,-1.752411
1512000,-1.762132,9.332599,1.817199,-8.172065,-0.768606,-2.302029
1516000,-1.867477,9.318233,1.766921,-8.813286,-0.600667,-3.218060
1520000,-1.812411,9.227253,1.850718,-8.950690,-0.585400,-3.599739
1524000,-1.917756,9.241618,1.728614,-9.332370,-1.302957,-4.240961
1528000,-1.934515,9.085996,2.099715,-9.256034,-2.478530,-4.546304
1532000,-1.999158,9.004593,2.545036,-6.920156,-3.486163,-4.912716
1536000,-2.104503,8.863335,2.674323,-4.217866,-4.402194,-4.653174
1540000,-2.080561,8.925584,2.475605,-2.645346,-4.524331,-4.347831
1544000,-2.164358,8.997410,1.845930,-2.080461,-3.699904,-4.210426
1548000,-2.169147,9.083601,1.635240,-2.431606,-3.089217,-3.920350
1552000,-2.236184,9.150639,1.369483,-3.256034,-3.333492,-3.355464
1556000,-2.126051,9.119514,1.185130,-4.523210,-3.272423,-3.065388
1560000,-2.111686,9.076419,0.919373,-6.187331,-2.432728,-2.851648
1564000,-2.173935,9.038112,0.828394,-7.652981,-2.264789,-2.500503
1568000,-2.310405,8.906430,1.283292,-8.217866,-2.967079,-1.950884
1572000,-2.250550,8.825027,1.592144,-8.034659,-2.936545,-0.958518
1576000,-2.296039,8.779537,1.776498,-7.927790,-2.310591,-0.592106
1580000,-2.286463,8.769960,1.915361,-7.698782,-2.631201,-0.134090
1584000,-2.154782,8.798691,2.035071,-6.614813,-2.860209,0.339192
1588000,-2.054225,8.755595,2.202666,-5.729317,-2.356392,0.904078
1592000,-2.044648,8.870518,2.118869,-5.164431,-2.005247,0.934612
1596000,-1.996764,8.882488,2.039860,-4.691149,-1.486163,0.781940
1600000,-2.039860,9.021352,1.929727,-4.859087,-0.478530,1.010948
1604000,-2.082955,8.961497,1.848324,-5.393438,-0.203721,1.010948
1608000,-2.073379,9.023746,1.750161,-5.698782,0.666508,1.194154
1612000,-1.984793,9.033323,1.640028,-6.721683,0.880249,1.667436
1616000,-1.970428,9.078813,1.769315,-7.286569,0.666508,1.621635
1620000,-2.006341,9.035717,1.711854,-7.240767,0.834447,1.530032
1624000,-2.030283,9.033323,1.774103,-7.530843,0.956585,1.820108
1628000,-2.257732,8.896853,2.126051,-7.011759,0.071089,1.789574
1632000,-2.360683,8.877700,2.396596,-5.973591,-0.829675,2.064383
1636000,-2.408567,8.789114,2.753332,-4.156797,-2.951812,2.247589
1640000,-2.276886,8.932767,2.865860,-2.507942,-3.593034,2.384994
1644000,-2.226608,9.002198,2.760514,-1.210232,-2.249522,2.904078
1648000,-2.238579,9.138668,2.358289,-0.126262,-1.302957,2.797207
1652000,-2.195483,9.265560,1.965640,0.347020,-1.348759,2.537665
1656000,-2.109292,9.332599,1.735796,0.240150,-1.272423,2.217055
1660000,-2.023100,9.409213,1.553837,-0.675881,-1.043415,1.453696
1664000,-1.903390,9.437943,1.515530,-1.820919,-0.447995,0.720871
1668000,-1.884237,9.418790,1.335965,-3.194965,0.284829,0.217055
1672000,-1.824382,9.368511,1.359907,-4.385805,0.849715,-0.439434
1676000,-1.845930,9.323022,1.422156,-5.515575,0.712310,-1.004319
1680000,-1.944092,9.299079,1.458069,-6.263667,0.864982,-1.630274
1684000,-1.970428,9.217676,1.802834,-5.943057,1.399333,-1.630274
1688000,-2.097321,9.143456,1.953669,-5.439240,0.895516,-1.630274
1692000,-1.953669,9.133880,1.893813,-4.691149,0.361165,-1.950884
1696000,-1.881842,9.117120,1.860295,-4.294202,0.681776,-2.179892
1700000,-1.836353,9.208099,1.891419,-4.584278,1.017653,-2.531037
1704000,-1.719037,9.208099,1.726219,-5.179698,1.216127,-3.294396
1708000,-1.704672,9.260772,1.630451,-5.820919,1.460402,-3.599739
1712000,-1.781286,9.085996,1.647211,-6.752217,1.994753,-4.118823
1716000,-2.171541,8.875306,2.102109,-6.859087,1.521470,-3.721877
1720000,-2.542642,8.674192,2.559402,-4.859087,0.574905,-2.836380
1724000,-2.698265,8.590396,2.774880,-3.011759,-1.531965,-1.721877
1728000,-2.700660,8.547300,3.014300,-1.194965,-2.585400,-0.088289
1732000,-2.573767,8.722076,3.117251,0.606562,-1.333492,1.102551
1736000,-2.487576,8.860941,2.777274,1.568394,-0.249522,2.171253
1740000,-2.245761,9.071630,2.334347,1.889004,0.834447,2.644536
1744000,-2.128445,9.301474,1.819593,1.492058,1.231394,2.323925
1748000,-1.946486,9.277532,1.630451,0.102745,0.788646,2.003314
1752000,-1.898602,9.323022,1.783680,-0.874354,0.895516,1.285757
1756000,-1.889025,9.246407,1.881842,-1.347636,1.307730,0.705604
1760000,-1.989582,9.172187,1.862689,-1.759850,1.307730,0.094917
1764000,-1.917756,9.188946,1.946486,-2.233133,1.536737,-0.698976
1768000,-1.977611,9.076419,1.956063,-2.446873,1.826814,-1.202793
1772000,-2.027889,9.085996,2.068590,-2.202598,1.765745,-1.385999
1776000,-2.128445,8.987833,2.114080,-1.622446,0.010020,-1.935617
1780000,-2.185906,8.966286,2.336741,-0.874354,-1.715171,-2.347831
1784000,-2.164358,8.995016,2.092532,-0.248400,-2.402194,-2.546304
1788000,-2.236184,8.966286,2.102109,-0.004125,-2.554866,-2.653174
1792000,-2.147599,8.968679,1.833959,-0.233133,-2.218988,-2.576838
1796000,-2.097321,9.057265,1.556231,-1.423972,-2.295324,-2.637907
1800000,-2.169147,9.057265,1.551443,-2.355270,-2.799140,-2.439434
1804000,-2.193089,8.949526,1.577779,-2.721682,-3.974713,-2.088289
1808000,-2.272097,8.927979,1.666364,-3.820919,-4.951812,-1.431800
1812000,-2.226608,8.796297,1.941698,-4.080462,-4.203721,-0.698976
1816000,-2.226608,8.772355,2.078167,-3.408705,-2.661736,0.384994
1820000,-2.193089,8.767567,2.130840,-2.859087,-2.218988,0.919345
1824000,-2.128445,8.779537,2.066196,-2.507942,-1.409827,1.346826
1828000,-2.080561,8.904037,2.049437,-2.462140,-0.585400,1.545299
1832000,-1.881842,8.995016,1.793257,-3.271301,-0.234255,1.453696
1836000,-1.814805,8.997410,1.721431,-4.004126,0.574905,1.392627
1840000,-1.843535,9.035717,1.798046,-4.309469,0.315363,1.178887
1844000,-1.788469,8.870518,1.845930,-4.095729,-0.432728,0.873543
1848000,-1.750161,8.920795,1.944092,-4.324736,-0.371659,0.415528
1852000,-1.764527,8.920795,1.970428,-4.370538,-0.417461,0.171253
1856000,-1.843535,8.899248,1.975216,-4.874354,-0.493797,-0.210426
1860000,-1.853112,8.896853,2.008735,-4.645347,-0.371659,-0.500503
1864000,-1.896208,8.858546,2.161964,-4.370538,-0.860209,-0.622640
1868000,-1.853112,8.877700,2.123657,-3.836186,-1.425095,-1.141724
1872000,-1.893813,8.880095,2.159570,-3.286568,-1.837308,-1.569205
1876000,-1.877054,8.949526,2.214637,-3.149163,-1.684637,-1.798213
1880000,-1.881842,8.968679,2.240973,-2.996492,-0.707537,-1.996686
1884000,-1.927332,8.992621,2.106898,-2.813286,0.895516,-2.195159
1888000,-2.056619,8.990228,2.030283,-2.965957,1.567272,-2.424167
1892000,-2.149993,8.971074,1.869871,-3.225499,1.567272,-2.515770
1896000,-2.310405,8.992621,1.867477,-3.347636,2.040554,-2.088289
1900000,-2.439692,8.927979,1.759738,-3.851454,1.643608,-1.462335
1904000,-2.487576,8.930372,1.661576,-4.110995,1.093989,-1.004319
1908000,-2.501941,8.923190,1.903390,-4.859087,0.376432,-0.851648
1912000,-2.351106,8.987833,1.968034,-5.485042,0.361165,-0.454701
1916000,-2.312799,8.951921,2.039860,-6.110995,0.727577,0.110184
1920000,-2.286463,8.983045,2.264915,-6.049927,0.819180,0.186520
1924000,-2.276886,9.006987,2.090138,-6.233133,0.971852,0.171253
1928000,-2.245761,8.971074,2.094927,-6.110995,1.231394,0.446062
1932000,-2.166753,8.975863,1.956063,-6.004126,1.506203,0.217055
1936000,-2.085350,9.040505,2.020706,-6.156797,1.857348,0.430795
1940000,-2.066196,8.956709,1.970428,-6.630079,1.643608,0.018581
1944000,-2.008735,9.014170,1.982399,-7.423973,1.796279,-0.011953
1948000,-1.874660,8.973468,2.008735,-8.080462,2.697043,-0.271495
1952000,-1.829170,9.006987,1.865083,-8.721683,3.506203,-0.576838
1956000,-1.898602,8.949526,1.798046,-9.133897,2.498570,-1.218060
1960000,-1.958457,8.906430,1.929727,-9.439240,2.193226,-1.324930
1964000,-2.054225,8.774749,2.238579,-9.301835,2.727577,-1.340197
1968000,-2.154782,8.793902,2.387019,-8.126263,1.933684,-0.958518
1972000,-2.236184,8.870518,2.207454,-7.088095,1.338264,-0.531037
1976000,-2.264915,8.741230,2.212242,-6.798018,-1.577766,-0.408900
1980000,-2.104503,8.822633,2.602497,-5.698782,-1.852576,0.094917
1984000,-2.030283,8.911219,2.566584,-4.324736,-0.890743,0.812474
1988000,-2.161964,9.023746,2.291251,-4.080462,-1.913644,0.873543
1992000,-1.991976,9.085996,2.193089,-3.943056,-2.112118,1.117818
1996000,-1.853112,9.191340,2.164358,-4.172065,-1.944179,0.552933
