time_us,ax,ay,az,gx,gy,gz
0,0.565032,0.071826,8.781932,0.469157,-2.402194,-0.851648
4000,0.617704,0.090980,8.786720,0.713432,-1.638835,-1.187526
8000,0.502782,0.062249,8.734048,0.514959,-0.677003,-0.637907
12000,0.488417,0.141258,8.710106,0.072211,0.055821,-0.240961
16000,0.548272,0.150835,8.561666,-0.370538,1.139791,0.094917
20000,0.514753,0.141258,8.568848,-0.813286,1.918417,0.583467
24000,0.603339,0.244209,8.607155,-0.660614,1.521470,0.278123
28000,0.579397,0.265756,8.451532,-0.981224,0.651241,0.079650
32000,0.577003,0.251391,8.604761,-0.981224,-0.234255,-0.073022
36000,0.689530,0.208296,8.635885,-0.752217,-1.135018,-0.485235
40000,0.699107,0.227449,8.619126,-0.767484,-2.280056,-0.943251
44000,0.646434,0.215478,8.686164,-1.164430,-3.196087,-1.248594
48000,0.644040,0.196325,8.894460,-1.088094,-3.791507,-1.660808
52000,0.572214,0.165200,8.829816,-0.920156,-4.127385,-1.737144
56000,0.565032,0.143652,8.908825,-0.630080,-4.173186,-1.767678
60000,0.538695,0.167594,8.951921,-0.523209,-4.615934,-1.355464
64000,0.574608,0.184354,8.858546,-0.126262,-4.906011,-1.599739
68000,0.521936,0.155623,8.851364,-0.477408,-5.226621,-1.721877
72000,0.521936,0.201113,8.731653,-0.385804,-5.547232,-2.073022
76000,0.591368,0.158017,8.777143,0.026409,-5.913644,-2.149358
80000,0.509965,0.138864,8.834604,0.545493,-5.455629,-2.118823
84000,0.550666,0.117316,8.769960,0.652363,-5.211354,-2.073022
88000,0.588974,0.165200,8.765172,0.576027,-5.348759,-2.118823
92000,0.615310,0.098162,8.705317,0.560760,-4.631201,-2.027220
96000,0.548272,0.117316,8.702923,0.316485,-3.562499,-1.752411
100000,0.514753,0.150835,8.619126,-0.553744,-2.707537,-1.492869
104000,0.509965,0.107739,8.686164,-1.744583,-1.638835,-0.973785
108000,0.500388,0.076614,8.669404,-1.958324,0.177959,-0.515770
112000,0.478840,0.131681,8.710106,-2.126262,0.834447,0.003314
116000,0.497994,0.050278,8.882488,-1.683514,1.277195,0.308658
120000,0.598550,-0.035913,9.004593,-1.423972,2.010020,0.400261
124000,0.519542,-0.052672,9.059659,-1.194965,2.468035,0.461329
128000,0.426168,-0.095768,9.124303,-0.569010,2.422234,0.446062
132000,0.464475,-0.114922,9.097966,0.087478,2.101623,0.171253
136000,0.447716,-0.067038,9.114726,1.110379,1.399333,0.064383
140000,0.486023,-0.126893,9.255983,1.995875,0.544371,-0.515770
144000,0.469264,-0.131681,9.148245,3.095111,-0.570133,-0.927984
148000,0.462081,-0.193930,9.018958,4.285951,-1.715171,-1.676075
152000,0.438139,-0.114922,8.983045,5.125646,-2.936545,-1.981419
156000,0.359130,-0.062249,8.815451,5.125646,-3.989980,-1.660808
160000,0.351948,-0.019154,8.583213,4.637096,-4.218988,-1.844014
164000,0.325611,0.023942,8.475474,4.087478,-4.249522,-1.385999
168000,0.347159,0.000000,8.451532,3.324119,-3.974713,-0.851648
172000,0.462081,0.162806,8.465898,2.484425,-3.226621,-0.531037
176000,0.483629,0.122104,8.300697,1.186714,-2.295324,-0.607373
180000,0.481235,0.203507,8.305486,-0.217866,-1.211354,0.079650
184000,0.481235,0.167594,8.221688,-1.332370,-0.157919,0.644536
188000,0.440533,0.213084,8.121132,-2.599545,0.269562,0.690337
192000,0.435745,0.251391,8.180987,-3.759850,-0.371659,1.056749
196000,0.526724,0.234632,8.437167,-4.263667,-0.921278,1.087284
200000,0.481235,0.210690,8.566454,-4.828553,-0.661736,1.331558
204000,0.464475,0.234632,8.755595,-4.798018,-0.722805,1.178887
208000,0.615310,0.150835,8.719683,-4.462141,-0.371659,1.285757
212000,0.577003,0.210690,8.595184,-4.431606,-0.509064,0.873543
216000,0.605733,0.248997,8.688558,-3.607178,-1.012881,0.614001
220000,0.778116,0.172383,8.872911,-2.767484,-0.875476,0.079650
224000,0.792481,0.141258,8.899248,-1.775118,-1.165553,-0.592106
228000,0.746991,0.119710,8.997410,-0.248400,-1.104484,-1.095922
232000,0.632069,0.165200,8.880095,0.576027,-1.730438,-1.340197
236000,0.711078,0.146046,8.985439,1.553127,-2.509064,-1.676075
240000,0.775721,0.210690,9.145850,2.667631,-2.081583,-2.027220
244000,0.782904,0.141258,9.071630,3.766867,-0.738072,-2.073022
248000,0.790087,0.102951,8.844181,4.392821,0.513837,-2.225693
252000,0.567426,0.124498,8.475474,3.217249,1.277195,-2.134090
256000,0.464475,0.124498,8.384495,1.934806,0.773379,-2.011953
260000,0.359130,0.071826,8.219295,0.576027,0.208493,-1.416533
264000,0.320823,0.090980,8.226477,-0.477408,-0.310591,-0.897449
268000,0.301669,0.098162,8.255207,-2.004125,-1.012881,-0.500503
272000,0.349553,0.119710,8.283937,-3.851454,-1.119751,-0.027220
276000,0.318429,0.062249,8.324639,-4.767485,-0.371659,0.583467
280000,0.404620,-0.021548,8.324639,-5.943057,0.468035,1.026215
284000,0.438139,0.028730,8.523358,-6.645347,0.895516,1.438429
288000,0.416591,0.019154,8.719683,-7.057561,1.353531,1.545299
292000,0.416591,0.000000,8.841787,-7.423973,1.048188,1.652169
296000,0.500388,-0.031125,8.906430,-6.492675,0.422234,1.438429
300000,0.593762,-0.011971,8.997410,-5.607179,-0.661736,1.026215
304000,0.696713,0.019154,9.160215,-4.584278,-1.730438,0.552933
308000,0.787692,0.023942,9.244013,-3.240766,-2.081583,-0.592106
312000,0.847547,-0.038307,9.349358,-1.576644,-2.127385,-1.523403
316000,0.658405,-0.009577,9.370906,0.118012,-2.020514,-1.981419
320000,0.588974,-0.079009,9.404425,1.217249,-2.005247,-2.027220
324000,0.519542,-0.055067,9.246407,1.782134,-1.073950,-1.828747
328000,0.481235,-0.069432,9.251195,2.255417,-0.005247,-1.324930
332000,0.529119,-0.064643,9.208099,3.003508,1.429867,-0.469968
336000,0.565032,-0.076614,9.157822,3.018775,3.399333,-0.164625
340000,0.553061,-0.026336,8.951921,2.881371,4.819180,0.354459
344000,0.536301,-0.007183,8.683769,2.316485,5.765745,0.812474
348000,0.500388,0.016759,8.619126,1.400455,6.284829,1.056749
352000,0.502782,0.031125,8.456321,0.805035,5.628341,1.270490
356000,0.521936,0.023942,8.437167,0.133279,4.788646,1.392627
360000,0.586579,-0.009577,8.518570,-0.248400,4.437501,1.392627
364000,0.536301,0.004788,8.549694,-0.477408,4.223761,1.316291
368000,0.610521,0.074220,8.449138,-0.599545,4.498569,0.919345
372000,0.490811,0.114922,8.434772,-1.408705,3.674142,0.690337
376000,0.517148,0.079009,8.458714,-1.943056,2.315363,0.858276
380000,0.529119,-0.011971,8.688558,-2.263667,0.926050,0.293391
384000,0.495600,-0.021548,8.868123,-1.973591,0.177959,0.094917
388000,0.378284,-0.026336,8.746018,-1.836186,-0.493797,0.201787
392000,0.464475,0.000000,8.913613,-1.820919,-0.677003,0.354459
396000,0.493206,0.043096,8.975863,-2.187331,-0.035782,0.705604
400000,0.502782,0.050278,8.920795,-1.912522,1.002386,0.949879
404000,0.433351,0.093374,8.870518,-2.065194,1.658875,1.621635
408000,0.507571,0.002394,8.961497,-1.622446,2.391699,1.865910
412000,0.555455,0.031125,9.093178,-1.210232,3.704677,2.369726
416000,0.679953,0.141258,9.097966,-0.614812,4.697043,2.430795
420000,0.648829,0.086191,8.980651,-0.599545,5.078722,2.507131
424000,0.687136,0.100556,8.796297,-0.065194,4.895516,2.094917
428000,0.730232,0.158017,8.860941,0.621829,3.719944,1.591100
432000,0.684742,0.143652,8.825027,1.430989,1.750478,0.812474
436000,0.780510,0.162806,8.846576,2.133279,-0.738072,-0.118823
440000,0.861913,0.203507,8.793902,3.064577,-2.524331,-1.263861
444000,0.823605,0.158017,8.803479,3.904272,-4.677003,-2.134090
448000,0.758962,0.181959,8.858546,4.133279,-5.989980,-3.019587
452000,0.672771,0.100556,8.932767,4.438623,-5.913644,-3.050121
456000,0.591368,0.098162,8.607155,3.980608,-5.211354,-2.714243
460000,0.562637,0.117316,8.461109,3.690531,-4.524331,-2.836380
464000,0.514753,0.138864,8.482656,2.896638,-3.623568,-2.240961
468000,0.569820,0.172383,8.413225,1.797401,-2.753339,-1.889816
472000,0.584185,0.146046,8.372523,0.255417,-1.959446,-1.813480
476000,0.521936,0.114922,8.310274,-1.042293,-0.936545,-1.492869
480000,0.495600,0.162806,8.231265,-2.004125,-0.860209,-0.973785
484000,0.445322,0.179565,8.528147,-2.843820,-1.608301,-0.653174
488000,0.433351,0.100556,8.568848,-3.423972,-1.898377,-0.668442
492000,0.411803,0.052672,8.678981,-3.683514,-1.898377,-0.302029
496000,0.433351,0.031125,8.796297,-3.988858,-1.791507,0.064383
500000,0.428562,-0.088585,8.999804,-3.607178,-1.684637,0.171253
504000,0.404620,-0.079009,9.244013,-2.569010,-0.829675,0.461329
508000,0.474052,-0.126893,9.351752,-1.500308,0.773379,0.705604
512000,0.464475,-0.122104,9.354146,-0.767484,2.132157,0.965146
516000,0.380678,-0.174777,9.279925,0.133279,2.590173,0.827742
520000,0.490811,-0.150835,9.210494,1.446256,2.040554,0.614001
524000,0.430956,-0.203507,9.191340,3.018775,1.781012,0.125452
528000,0.426168,-0.107739,8.956709,4.102745,1.506203,0.064383
532000,0.507571,-0.023942,8.760384,4.285951,0.010020,-0.546304
536000,0.521936,0.000000,8.621520,4.362287,-1.440362,-1.080655
540000,0.509965,0.074220,8.573636,4.041677,-2.203721,-1.233327
544000,0.550666,0.112527,8.635885,3.537859,-2.035782,-1.584472
548000,0.483629,0.112527,8.738836,3.553127,-0.829675,-1.279129
552000,0.395043,0.071826,8.726865,3.186715,0.697043,-0.882182
556000,0.469264,0.093374,8.631097,2.728699,2.300096,-0.256228
560000,0.409408,0.174777,8.542512,1.873737,4.147425,0.461329
564000,0.442927,0.203507,8.504205,1.232516,5.460402,1.255223
568000,0.390255,0.213084,8.382100,0.285951,5.322997,1.499497
572000,0.409408,0.265756,8.319851,-0.248400,5.078722,1.713238
576000,0.486023,0.342371,8.267179,-1.362904,3.979486,1.423162
580000,0.507571,0.330400,8.209718,-1.943056,3.017654,1.392627
584000,0.572214,0.313640,8.267179,-2.462140,1.826814,1.178887
588000,0.565032,0.282516,8.362947,-2.950690,1.704676,0.781940
592000,0.586579,0.217872,8.339005,-3.149163,1.399333,0.217055
596000,0.569820,0.232238,8.504205,-3.332370,0.666508,0.201787
600000,0.624887,0.119710,8.657434,-2.736950,-0.188453,-0.195159
604000,0.632069,0.038307,8.971074,-1.759850,-0.096850,-0.683709
608000,0.605733,0.035913,9.042900,-0.477408,-0.325858,-0.866915
612000,0.497994,-0.004788,8.954314,0.759233,-0.295324,-1.004319
616000,0.526724,-0.064643,9.040505,1.812669,-0.646469,-0.989052
620000,0.591368,-0.023942,8.987833,2.682898,0.177959,-1.202793
624000,0.517148,-0.071826,8.906430,3.171447,0.590173,-1.172258
628000,0.486023,-0.009577,8.760384,3.079844,0.590173,-0.836380
632000,0.404620,-0.050278,8.805874,2.927173,0.300096,-0.973785
636000,0.383072,-0.011971,8.801085,2.392821,0.345898,-0.851648
640000,0.383072,-0.009577,8.762778,2.072211,0.666508,-0.363098
644000,0.395043,-0.059855,8.746018,1.904272,0.742844,-0.134090
648000,0.306458,0.033519,8.623915,1.369921,0.895516,0.491864
652000,0.342371,0.062249,8.549694,0.530226,0.880249,0.659803
656000,0.395043,0.074220,8.427590,-0.278934,1.277195,1.316291
660000,0.442927,0.110133,8.465898,-1.454507,1.613073,1.423162
664000,0.541090,0.129287,8.425196,-2.370538,1.964218,1.362093
668000,0.574608,0.198719,8.267179,-3.332370,1.643608,1.148352
672000,0.591368,0.213084,8.178593,-3.836186,0.758111,0.904078
676000,0.541090,0.258574,8.176199,-4.782751,-0.341125,0.629268
680000,0.603339,0.225055,8.204929,-5.179698,-1.287690,0.262856
684000,0.634463,0.272939,8.341399,-5.943057,-2.051049,-0.057755
688000,0.574608,0.162806,8.552089,-6.080462,-2.203721,-0.302029
692000,0.457293,0.081403,8.674192,-6.172065,-2.860209,-0.302029
696000,0.507571,0.074220,8.786720,-6.034659,-3.211354,-0.469968
700000,0.553061,0.033519,8.863335,-5.485042,-3.104484,-0.027220
704000,0.677559,0.064643,8.973468,-4.584278,-2.539598,-0.134090
708000,0.679953,0.122104,8.916007,-4.172065,-1.302957,-0.515770
712000,0.780510,0.000000,9.100361,-3.271301,-0.753339,-0.607373
716000,0.809240,0.028730,9.279925,-2.049927,1.429867,-0.897449
720000,0.653617,0.035913,9.306262,-0.859087,3.689409,-0.729510
724000,0.517148,-0.067038,9.315839,-0.065194,4.620707,-0.546304
728000,0.476446,-0.155623,9.397242,0.438623,5.506203,-0.347831
732000,0.471658,-0.155623,9.461885,1.186714,6.880249,0.354459
736000,0.423774,-0.117316,9.248801,1.492058,9.002386,0.995681
740000,0.514753,-0.088585,9.081207,1.705798,11.261928,1.774307
744000,0.603339,-0.043096,9.016563,1.553127,13.704676,2.094917
748000,0.816423,0.028730,9.057265,1.110379,15.292462,0.980413
752000,1.082179,0.059855,8.585608,-2.416339,25.307730,1.942245
756000,0.497994,-0.086191,9.088389,-0.324736,19.155058,1.835375
760000,0.869095,0.011971,9.200917,0.972974,20.773378,1.407894
764000,0.464475,-0.040701,8.985439,0.285951,23.765745,2.125452
768000,0.337582,-0.007183,8.693346,-0.599545,23.567272,2.797207
772000,1.168370,-0.059855,8.176199,-2.156797,29.628340,5.026215
776000,-0.122104,0.134075,8.147469,-4.843820,24.849714,4.904078
780000,0.653617,-0.031125,9.006987,-7.485042,27.994753,5.743773
784000,0.524330,-0.014365,9.205706,-7.943057,37.093990,7.285757
788000,0.864307,0.090980,9.423578,-11.759851,44.025288,8.476596
792000,-0.057461,-0.289698,9.725247,-10.431606,52.529102,13.163619
796000,-0.086191,-0.213084,9.703699,-8.736950,56.406967,16.858276
800000,0.031125,-0.304064,9.991004,-10.584278,62.773376,20.155987
804000,0.000000,-0.248997,10.108319,-13.027026,75.490936,24.568201
808000,-0.086191,-0.349553,10.012551,-14.263667,86.849716,29.087284
812000,0.227449,-0.191536,9.840169,-16.034658,96.834450,32.751408
816000,0.624887,-0.169988,9.768343,-18.370537,110.040558,35.728504
820000,0.730232,-0.016759,9.361329,-20.385803,121.658875,37.652168
824000,0.588974,-0.004788,9.004593,-22.874353,130.284821,39.148354
828000,0.390255,-0.038307,8.961497,-24.584276,137.017654,40.110184
832000,0.246603,0.102951,8.889671,-27.088095,142.987122,41.514767
836000,0.064643,-0.093374,9.157822,-28.859085,143.994751,42.308659
840000,0.191536,-0.371101,9.732430,-28.920155,152.529099,43.530033
844000,0.107739,-0.246603,9.971850,-29.698780,162.834442,45.759041
848000,0.112527,-0.421380,9.950302,-28.477406,169.002380,46.339191
852000,0.287304,-0.500388,10.364499,-28.324734,179.903152,46.995682
856000,0.304064,-0.739808,11.473015,-26.278934,195.384064,47.988049
860000,0.442927,-0.974440,12.725182,-20.049927,218.941315,51.087284
864000,0.426168,-1.118092,13.620613,-12.110995,246.071091,53.453697
868000,0.507571,-1.233014,13.757083,-1.179698,272.666534,55.484230
872000,0.339977,-1.192312,13.242330,9.201982,302.376434,57.026215
876000,-0.318429,-0.869095,11.999739,16.224882,325.017670,58.980415
880000,-1.707066,-0.739808,9.940725,18.835569,329.872620,60.507130
884000,-2.446874,-0.395043,8.255207,15.553126,316.987122,59.820110
888000,-2.499547,-0.256180,7.807492,11.400455,300.681793,58.888809
892000,-2.159570,-0.213084,8.051701,8.133280,289.216125,57.545300
896000,-1.484405,-0.129287,8.386889,7.140913,283.689423,54.583466
900000,-1.403002,0.114922,8.233660,6.637096,279.277222,52.507130
904000,-1.695095,0.263362,7.503428,4.301219,267.887878,48.598736
908000,-1.510741,0.404620,7.692570,-0.660614,261.918427,45.850643
912000,-1.589750,0.328006,7.967903,-3.378171,264.071106,44.217056
916000,-1.855506,0.421380,7.726089,-7.149163,264.025299,41.591103
920000,-2.284068,0.433351,7.407660,-9.820919,262.727600,39.743774
924000,-2.592921,0.495600,7.307104,-13.561378,260.758118,38.155987
928000,-2.839523,0.459687,7.374141,-16.202599,261.185608,37.850643
932000,-2.942474,0.316035,7.673417,-17.515575,263.552002,37.789574
936000,-3.248932,0.282516,7.644686,-16.691147,265.719940,37.957512
940000,-3.641581,0.387861,7.163452,-17.729315,265.017670,37.423161
944000,-4.050989,0.416591,6.866570,-19.973591,261.093994,36.858276
948000,-4.232949,0.292093,6.684611,-22.843819,258.483307,36.476597
952000,-4.539406,0.251391,6.833052,-26.736948,256.376434,36.003315
956000,-4.850653,0.126893,7.163452,-29.164429,254.513840,36.522400
960000,-4.802769,-0.052672,7.438785,-29.515575,255.765732,37.667439
964000,-5.090073,-0.138864,7.505822,-29.256031,256.529114,38.323925
968000,-5.238513,-0.098162,7.369353,-30.340004,257.796295,39.392628
972000,-5.228937,-0.079009,7.280767,-32.248398,262.330627,41.194153
976000,-5.080496,0.040701,7.199365,-36.278934,270.941315,42.766674
980000,-4.807557,0.131681,6.727707,-40.004124,282.284851,43.896446
984000,-4.977545,0.313640,5.813122,-45.515575,292.742859,44.705605
988000,-5.305551,0.399832,4.948815,-50.874355,300.010040,46.094917
992000,-5.439626,0.409408,4.639963,-56.233131,302.040558,46.293392
996000,-5.456386,0.423774,4.750096,-59.164429,301.903168,46.110184
1000000,-5.494693,0.476446,4.268862,-59.072826,300.071106,44.781940
1004000,-6.052542,0.469264,3.550601,-58.355270,287.918427,43.178886
1008000,-5.849035,0.497994,3.617639,-56.019390,277.948975,41.530033
1012000,-5.437232,0.169988,3.634398,-47.591911,279.414612,41.957512
1016000,-5.633556,0.562637,3.828329,-45.607178,278.315369,38.217056
1020000,-6.129156,0.409408,3.234566,-43.683514,277.292480,37.362095
1024000,-6.454768,0.502782,3.191471,-44.920155,271.124542,34.705605
1028000,-6.402095,0.440533,3.667917,-48.065193,266.926056,33.850643
1032000,-5.877765,0.438139,4.359841,-52.233131,277.826813,34.079651
1036000,-5.904101,0.447716,3.684676,-58.263668,296.300110,35.453697
1040000,-6.543353,0.526724,2.537854,-67.790382,313.032928,36.736137
1044000,-7.237672,0.581791,1.319205,-76.767487,321.704681,37.713238
1048000,-7.642292,0.351948,0.483629,-85.210228,330.254303,41.789574
1052000,-7.965509,0.311246,0.351948,-90.965958,335.277222,43.194153
1056000,-8.753201,0.146046,0.354342,-96.538475,330.177979,42.140720
1060000,-7.625533,-0.045490,1.113304,-97.362900,340.864990,44.568199
1064000,-8.497022,-0.026336,1.383849,-95.133896,335.750488,44.384995
1068000,-8.635885,-0.246603,1.431733,-91.317101,322.773376,42.522400
1072000,-8.487445,-0.430956,2.056619,-82.569008,312.010040,39.972782
1076000,-8.588001,-0.593762,2.387019,-71.133896,298.193237,37.392628
1080000,-9.682152,-0.586579,1.893813,-60.065193,264.605438,31.239956
1084000,-9.351752,-0.888249,2.020706,-44.278934,242.758102,28.919346
1088000,-9.847352,-0.816423,2.212242,-30.828552,218.330627,24.843010
1092000,-10.096349,-0.895431,1.953669,-17.530842,191.582535,21.545300
1096000,-9.945514,-0.938527,2.214637,-5.271301,172.864975,20.140718
1100000,-9.758766,-0.713472,2.070984,4.224883,160.758102,19.835377
1104000,-9.234436,-0.478840,2.075773,10.805036,155.506195,20.262857
1108000,-8.607155,-0.397437,1.477222,15.766867,158.773376,19.911713
1112000,-8.858546,0.074220,-0.260968,14.972974,164.727570,20.644537
1116000,-9.339781,0.289698,-1.977611,11.629462,162.788635,20.568201
1120000,-9.500193,0.605733,-3.110068,6.942440,153.643600,20.079651
1124000,-9.342175,0.811634,-3.485958,-0.446873,146.315353,19.896444
1128000,-8.851364,1.110910,-3.502717,-9.546110,146.330627,20.919346
1132000,-8.046912,1.292869,-3.531447,-20.904888,154.284821,20.827742
1136000,-7.752425,1.563414,-3.921702,-32.859085,164.651230,20.339193
1140000,-7.752425,1.647211,-4.352659,-44.828552,173.032913,19.255222
1144000,-7.874529,1.596933,-4.644751,-54.599545,176.849716,17.636902
1148000,-8.121132,1.288081,-4.027047,-60.752213,176.071091,15.362092
1152000,-7.905654,0.986411,-2.552219,-63.546112,177.826813,13.209421
1156000,-7.807492,0.433351,-0.675165,-58.278934,183.155060,11.117818
1160000,-8.259995,0.124498,0.225055,-48.492676,183.292465,8.720871
1164000,-9.160215,-0.112527,0.311246,-39.179695,173.567261,6.293391
1168000,-9.548077,-0.356736,0.577003,-29.103359,159.704666,3.468963
1172000,-9.811439,-0.624887,0.921768,-16.904888,148.055817,1.713238
1176000,-10.421960,-0.586579,0.689530,-4.095729,135.216125,0.400261
1180000,-10.742783,-0.969652,0.193930,9.843203,120.697044,2.232322
1184000,-11.808203,-0.598550,-0.677559,15.827935,91.811546,-0.271495
1188000,-11.767501,-0.593762,-1.314417,24.224884,67.078728,0.308658
1192000,-11.738770,-0.574608,-1.438915,30.713432,47.613071,2.125452
1196000,-11.592725,-0.397437,-1.829170,35.293583,30.162691,3.789574
1200000,-11.219229,-0.304064,-2.169147,37.889004,18.864981,6.094917
1204000,-10.788273,0.002394,-2.724602,39.629463,11.261928,8.781940
1208000,-10.232818,0.320823,-3.055001,39.186714,7.613074,11.133085
1212000,-9.691729,0.794875,-3.584120,32.820301,-2.707537,10.461329
1216000,-8.628703,0.967257,-3.524265,26.728701,1.109257,11.682703
1220000,-8.276755,1.091756,-3.356671,19.950073,15.597805,12.858275
1224000,-8.449138,1.422156,-3.960010,11.171448,16.239027,11.056749
1228000,-8.401254,1.510741,-4.548983,1.827936,14.651241,9.697970
1232000,-8.274361,1.649605,-4.606444,-7.286569,20.635973,9.728504
1236000,-8.097190,1.788469,-4.323928,-18.416338,24.590172,9.346826
1240000,-7.424419,1.776498,-3.548207,-28.492676,36.819180,8.812474
1244000,-7.165846,1.716643,-3.239355,-37.423973,51.414600,7.346826
1248000,-7.443573,1.663970,-3.292027,-45.683514,62.559639,5.591101
1252000,-8.082825,1.513135,-3.452439,-52.278934,62.635975,2.003314
1256000,-8.532935,1.046266,-3.160346,-54.782749,62.849712,0.659803
1260000,-9.176975,0.658405,-2.408567,-54.019390,56.376431,-1.172258
1264000,-9.042900,0.244209,-0.928950,-48.401070,51.735210,-2.531037
1268000,-8.963891,-0.160412,0.428562,-38.217865,53.658875,-2.653174
1272000,-9.402030,-0.316035,0.421380,-26.660612,52.330631,-3.019587
1276000,-9.981427,-0.217872,-0.035913,-17.347635,40.956585,-3.935617
1280000,-9.871294,-0.392649,0.150835,-9.317102,26.269562,-5.263861
1284000,-9.306262,-0.464475,0.519542,-0.324736,22.391699,-5.477602
1288000,-9.586384,-0.378284,0.114922,8.041677,17.765745,-6.057755
1292000,-9.907207,-0.311246,-0.679953,14.484425,9.078722,-6.454701
1296000,-10.089166,-0.205901,-1.146823,18.362288,0.330631,-7.447067
1300000,-10.117896,-0.246603,-1.527501,26.652365,-2.860209,-4.424167
1304000,-10.864887,-0.083797,-2.205060,26.591295,-22.692270,-6.118823
1308000,-10.158598,-0.095768,-1.869871,30.942440,-20.432728,-2.332564
1312000,-10.639832,0.011971,-2.171541,32.606560,-23.226622,-0.088289
1316000,-10.316615,0.193930,-2.425326,32.224884,-27.974712,2.155986
1320000,-9.847352,0.466869,-2.595315,29.980608,-29.196087,4.308658
1324000,-9.018958,0.775721,-2.750938,26.377556,-24.677004,6.308658
1328000,-8.353370,1.106121,-3.134010,20.682898,-11.959446,8.232322
1332000,-7.908048,1.513135,-3.541024,12.118012,3.155058,10.568199
1336000,-7.074866,1.824382,-3.265691,-0.065194,17.842081,9.682703
1340000,-5.906496,1.872266,-3.069367,-10.507942,51.017654,11.545299
1344000,-5.863400,2.099715,-3.512294,-22.691147,74.956589,7.774307
1348000,-5.937620,1.934515,-4.058172,-33.011757,89.994759,3.926979
1352000,-6.646304,1.762132,-4.005499,-40.370537,98.941322,0.003314
1356000,-7.745243,1.292869,-3.660734,-44.828552,94.208496,-5.050121
1360000,-8.726865,0.634463,-2.856283,-45.927788,92.269562,-6.363098
1364000,-10.029311,0.220267,-2.477999,-41.485039,83.429871,-6.576838
1368000,-10.771513,-0.090980,-2.252944,-38.492676,68.834450,-5.630273
1372000,-11.039664,-0.349553,-1.838747,-33.591911,53.093990,-5.553937
1376000,-11.097125,-0.584185,-1.015141,-26.462139,39.032921,-4.088289
1380000,-10.941502,-0.689530,-0.689530,-18.233131,26.177958,-3.172258
1384000,-10.788273,-0.677559,-0.833182,-10.095729,13.460402,-2.302029
1388000,-10.536881,-0.636858,-0.893037,-3.347636,1.338264,-2.256228
1392000,-10.393229,-0.598550,-1.036689,4.499691,-9.944179,-2.408900
1396000,-10.436325,-0.409408,-1.493982,11.553126,-19.745707,-2.210426
1400000,-10.474632,-0.409408,-1.874660,17.308851,-30.768606,-1.767678
1404000,-10.457873,-0.430956,-1.867477,22.469158,-39.608299,-1.248594
1408000,-10.582372,-0.337582,-2.042254,27.644730,-46.478531,-0.286762
1412000,-10.584765,-0.167594,-2.293645,29.537861,-55.959446,0.843009
1416000,-10.184934,-0.040701,-2.209848,31.293585,-60.081585,2.354459
1420000,-9.658210,0.100556,-2.066196,31.995876,-61.409828,3.239955
1424000,-9.038112,0.332794,-1.999158,30.988241,-56.051048,3.942245
1428000,-8.377312,0.526724,-1.910573,27.415724,-47.089218,4.583467
1432000,-7.790732,0.694318,-1.908179,24.820303,-31.364027,4.507131
1436000,-7.594408,0.823605,-2.135628,20.850838,-12.447996,5.072017
1440000,-7.690176,1.012747,-2.671929,16.285952,3.475669,4.507131
1444000,-7.886500,1.134852,-3.462016,10.240149,13.567271,3.514765
1448000,-8.149862,1.029507,-3.593697,4.301219,21.979485,2.568200
1452000,-8.429984,0.881066,-3.330335,0.667630,29.261929,1.774307
1456000,-9.030929,0.691924,-3.093309,-0.981224,32.361164,1.438429
1460000,-9.569624,0.483629,-3.198653,-1.790385,30.941317,1.636902
1464000,-9.919178,0.466869,-3.172317,-2.950690,25.368797,1.301024
1468000,-10.153810,0.368707,-3.138798,-3.912522,17.536737,1.377360
1472000,-10.141838,0.282516,-3.023877,-4.248401,8.956584,1.316291
1476000,-10.041282,0.203507,-2.896984,-2.630080,6.315363,2.720871
1480000,-10.132261,0.292093,-2.990358,-1.668247,-0.768606,2.965146
1484000,-9.933543,0.318429,-3.110068,-1.943056,-8.890744,2.736139
1488000,-9.696517,0.330400,-2.861071,-1.301835,-14.478530,2.537665
1492000,-9.478644,0.294487,-2.645593,0.087478,-19.028149,2.446062
1496000,-9.416395,0.308852,-2.260126,2.194348,-22.585400,1.988047
1500000,-9.490616,0.323217,-1.989582,3.736333,-29.898378,1.194154
1504000,-9.344569,0.342371,-1.778892,6.453890,-34.249523,0.461329
1508000,-9.203311,0.378284,-1.477222,8.957706,-37.440361,0.140719
1512000,-9.109938,0.339977,-1.328782,10.866104,-38.112118,-0.073022
1516000,-9.215282,0.440533,-1.479617,11.354653,-39.379295,-0.454701
1520000,-9.109938,0.600945,-1.577779,10.637096,-39.241890,-0.454701
1524000,-8.674192,0.629675,-1.515530,9.980608,-35.409828,-0.317297
1528000,-8.506598,0.699107,-1.656788,8.499692,-27.409828,-0.485235
1532000,-8.494628,0.751779,-1.848324,6.148546,-20.447996,-0.546304
1536000,-8.554482,0.833182,-2.133234,2.331753,-13.944179,-0.973785
1540000,-8.508993,0.749385,-2.176329,-1.652980,-7.394560,-1.416533
1544000,-8.628703,0.641646,-2.164358,-5.347637,-0.234255,-1.828747
1548000,-9.074024,0.464475,-2.291251,-7.485042,5.048188,-2.042487
1552000,-9.449914,0.385466,-2.260126,-8.630079,6.116890,-1.737144
1556000,-9.595961,0.215478,-2.427721,-8.569011,5.002387,-1.630274
1560000,-9.732430,0.222661,-2.238579,-8.080462,1.964218,-1.828747
1564000,-9.564836,0.038307,-2.118869,-6.996491,0.803913,-1.523403
1568000,-9.526528,-0.019154,-1.908179,-4.874354,-0.112117,-1.385999
1572000,-9.593566,-0.069432,-1.707066,-1.958324,-1.638835,-1.538671
1576000,-9.490616,-0.153229,-1.297657,2.224883,2.437501,0.094917
1580000,-9.653421,-0.335188,-1.707066,7.583661,4.101623,2.339192
1584000,-9.911995,0.193930,-1.735796,4.743967,-6.096850,-1.111190
1588000,-9.255983,0.004788,-1.793257,7.476791,-6.402194,0.384994
1592000,-9.651027,0.177171,-1.747767,9.095112,-5.409827,-0.164625
1596000,-9.485827,0.205901,-2.154782,9.736333,-11.196087,-0.607373
1600000,-9.454702,0.296881,-2.123657,9.629462,-12.615934,-0.515770
1604000,-9.241618,0.438139,-2.090138,9.339386,-14.280057,-0.653174
1608000,-9.050082,0.409408,-1.996764,8.469157,-13.287690,-0.500503
1612000,-8.848969,0.457293,-2.015918,6.835569,-11.119752,-1.034854
1616000,-8.844181,0.596156,-2.214637,4.255417,-7.089217,-0.897449
1620000,-8.736442,0.691924,-2.243367,1.568394,-4.234255,-0.546304
1624000,-8.377312,0.694318,-2.047042,-1.164430,1.628341,-0.714243
1628000,-8.365341,0.699107,-1.934515,-3.897255,8.574905,-1.279129
1632000,-8.561666,0.665588,-2.027889,-6.156797,14.559638,-1.263861
1636000,-8.937555,0.560243,-2.377442,-7.943057,17.170324,-1.340197
1640000,-8.927979,0.507571,-2.190695,-9.194965,16.910784,-1.599739
1644000,-8.422802,0.328006,-1.307234,-8.660614,21.597805,-2.485235
1648000,-8.473080,0.275333,-0.806846,-5.958323,29.750477,-2.363098
1652000,-8.846576,0.213084,-1.015141,-2.233133,30.971851,-2.439434
1656000,-9.095572,0.246603,-1.288081,0.026409,28.223761,-3.523403
1660000,-9.287108,0.169988,-1.470040,2.576027,25.628340,-3.996686
1664000,-9.521740,0.172383,-1.862689,4.698165,22.712309,-3.798213
1668000,-9.921572,0.126893,-2.169147,7.354653,17.658875,-3.538671
1672000,-10.055647,0.234632,-2.504335,7.812669,10.452767,-2.805846
1676000,-9.892841,0.316035,-2.494758,7.385188,4.788646,-2.469968
1680000,-9.660604,0.237026,-2.504335,7.430989,2.116890,-1.905083
1684000,-9.674969,0.335188,-2.564190,6.713432,-0.264789,-1.599739
1688000,-9.651027,0.344765,-2.746149,6.056943,-3.944179,-1.431800
1692000,-9.485827,0.296881,-2.583344,5.049310,-7.822041,-1.492869
1696000,-9.260772,0.263362,-2.173935,4.988241,-9.272423,-1.874548
1700000,-9.200917,0.134075,-1.819593,6.606562,-9.638836,-2.302029
1704000,-9.239224,0.126893,-1.817199,8.087478,-9.898377,-2.622640
1708000,-9.275137,0.217872,-1.922544,8.240149,-10.783874,-3.141724
1712000,-9.148245,0.330400,-2.082955,6.820302,-9.440362,-3.477602
1716000,-9.117120,0.284910,-2.018312,4.698165,-5.455629,-3.828747
1720000,-9.414001,0.308852,-2.480393,2.285951,0.071089,-2.851648
1724000,-9.627085,0.280122,-2.899378,-0.721682,2.529104,-1.935617
1728000,-9.813833,0.244209,-3.136404,-3.866720,3.399333,-1.462335
1732000,-9.916783,0.234632,-3.387795,-6.889622,3.857348,0.064383
1736000,-9.971850,0.215478,-3.390190,-9.988858,3.246661,0.720871
1740000,-9.713276,0.201113,-3.213019,-12.813285,2.712310,1.285757
1744000,-9.495404,0.234632,-2.784456,-15.011760,4.300097,1.499497
1748000,-9.184157,0.095768,-2.319981,-16.065193,7.384066,2.064383
1752000,-9.030929,0.086191,-1.833959,-14.904889,11.506203,1.850642
1756000,-9.028535,0.067038,-1.838747,-13.469775,13.704676,1.392627
1760000,-9.160215,0.114922,-1.817199,-11.668247,12.880248,0.705604
1764000,-9.433155,0.074220,-1.824382,-9.591911,10.040554,0.201787
1768000,-9.646238,0.090980,-1.910573,-7.286569,5.842081,-0.240961
1772000,-9.785102,0.112527,-1.735796,-4.660614,0.651241,-0.164625
1776000,-9.698911,0.019154,-1.692701,-1.576644,-4.157919,0.186520
1780000,-9.651027,0.043096,-1.628057,0.957707,-8.096850,0.308658
1784000,-9.610326,0.186748,-1.398214,3.751600,-11.974713,0.552933
1788000,-8.884883,0.098162,-0.739808,7.721066,-12.570133,0.308658
1792000,-8.805874,0.153229,-0.663194,11.659997,-9.089217,-0.271495
1796000,-8.983045,0.153229,-1.034295,15.492058,-6.844942,-0.683709
1800000,-9.270349,0.304064,-1.553837,17.659998,-8.386927,-0.805846
1804000,-9.399636,0.304064,-1.642422,19.217249,-11.180820,-1.141724
1808000,-9.270349,0.258574,-1.539472,21.034044,-10.783874,-0.698976
1812000,-9.373300,0.318429,-1.601721,21.858471,-8.035782,0.415528
1816000,-9.196129,0.466869,-1.833959,20.682898,-5.226621,1.377360
1820000,-9.109938,0.586579,-2.391808,17.690531,-0.799140,2.262856
1824000,-8.956709,0.737414,-2.856283,13.843203,3.887883,2.888810
1828000,-8.865729,0.782904,-3.174711,9.446257,8.697042,2.873543
1832000,-8.791509,0.818817,-3.541024,5.308852,13.750478,3.682703
1836000,-8.954314,0.885855,-3.924097,-1.027026,17.124523,3.942245
1840000,-8.954314,0.885855,-3.825934,-7.332370,17.811546,3.484231
1844000,-9.006987,0.782904,-3.888184,-12.340003,19.582539,3.713238
1848000,-9.203311,0.785298,-3.823540,-16.935423,19.093988,3.988047
1852000,-9.406818,0.735020,-3.703830,-21.576643,15.277195,3.682703
1856000,-9.090784,0.502782,-2.937685,-24.202599,12.422234,3.270490
1860000,-8.817844,0.378284,-2.023100,-24.202599,13.002386,2.690337
1864000,-8.832211,0.203507,-1.687912,-22.462139,12.956584,1.636902
1868000,-9.095572,0.107739,-1.513135,-19.683514,9.933683,0.446062
1872000,-9.234436,0.112527,-1.460463,-16.752216,5.307730,-0.744777
1876000,-9.418790,-0.047884,-1.276109,-12.981225,0.010020,-1.447067
1880000,-9.459491,-0.122104,-1.039083,-7.622446,-3.944179,-1.553938
1884000,-9.418790,-0.143652,-0.809240,-2.416339,-7.394560,-1.691342
1888000,-9.323022,-0.040701,-0.632069,2.072211,-10.936545,-2.347831
1892000,-9.272743,0.050278,-0.804452,5.766867,-13.135018,-2.836380
1896000,-9.277532,0.064643,-1.276109,9.324119,-13.852576,-2.744777
1900000,-9.392453,0.100556,-1.357512,11.354653,-15.394561,-2.729510
1904000,-9.354146,0.057461,-1.482011,13.537859,-16.738071,-2.607373
1908000,-9.351752,0.107739,-1.419762,15.782134,-16.661736,-2.378365
1912000,-9.378088,0.107739,-1.441309,17.583662,-16.585400,-1.813480
1916000,-9.449914,0.181959,-1.565808,18.545494,-16.631203,-1.538671
1920000,-9.425972,0.294487,-1.845930,19.095112,-16.615934,-0.836380
1924000,-9.323022,0.380678,-2.001553,19.171448,-14.203721,-0.011953
1928000,-9.215282,0.567426,-2.499547,18.301218,-5.745705,1.560566
1932000,-9.502586,0.737414,-3.177106,13.461523,-9.715171,1.346826
1936000,-9.069236,0.723049,-3.117251,9.751600,-5.165553,2.522398
1940000,-9.042900,0.720655,-3.191471,5.003509,-2.051049,2.858276
1944000,-8.683769,0.785298,-3.122039,0.667630,6.544371,4.155986
1948000,-8.801085,0.766145,-2.964022,-4.340003,13.872615,4.018581
1952000,-8.918402,0.667982,-3.239355,-7.805653,18.635973,4.064383
1956000,-9.222465,0.517148,-3.277662,-10.507942,21.689409,4.369727
1960000,-9.291897,0.519542,-3.031059,-12.950690,20.590172,3.820108
1964000,-9.282320,0.373495,-2.772485,-14.187331,18.544371,3.392627
1968000,-9.279925,0.201113,-2.224213,-13.271300,16.834448,2.980413
1972000,-9.354146,0.050278,-2.056619,-11.408706,9.399332,1.575833
1976000,-9.188946,-0.040701,-1.709460,-9.286569,7.933684,1.362093
1980000,-9.358934,-0.038307,-1.319205,-4.996491,6.162692,1.026215
1984000,-9.418790,-0.086191,-1.470040,-0.309469,2.559638,0.720871
1988000,-9.689334,-0.002394,-1.647211,1.873737,-3.028148,-0.118823
1992000,-9.823410,-0.043096,-1.877054,4.255417,-8.539598,0.064383
1996000,-9.686940,0.055067,-1.939303,6.530226,-12.890744,0.110184
