time_us,ax,ay,az,gx,gy,gz
0,1.458069,-0.301669,8.872911,-1.668247,6.055821,1.087284
4000,1.496376,-0.289698,8.865729,-1.943056,6.895516,1.499497
8000,1.527501,-0.284910,8.920795,-1.683514,8.116890,1.514765
12000,1.812411,-0.270545,9.088389,-0.569010,12.132157,2.033848
16000,1.649605,-0.222661,9.006987,-1.149163,11.078722,1.026215
20000,1.862689,-0.225055,9.006987,-0.569010,13.918416,1.072016
24000,1.745373,-0.229843,8.880095,-1.301835,14.132157,0.598734
28000,1.879448,-0.248997,9.040505,-1.301835,14.330630,0.323925
32000,1.850718,-0.239420,9.030929,-1.301835,15.231394,-0.011953
36000,1.900996,-0.325611,9.109938,-0.691148,16.590172,0.079650
40000,1.987187,-0.320823,9.117120,0.056943,19.445133,0.369726
44000,1.886631,-0.237026,9.018958,0.194348,22.147425,0.262856
48000,1.908179,-0.165200,8.853758,-0.172064,23.857347,0.507131
52000,1.915361,-0.205901,8.817844,-1.225499,25.597805,0.614001
56000,1.912967,-0.229843,8.899248,-2.034660,27.429867,0.476597
60000,1.951274,-0.208296,9.014170,-3.133896,29.887882,0.797207
64000,1.944092,-0.246603,9.129091,-3.576644,32.742844,1.560566
68000,2.116474,-0.304064,9.215282,-3.836186,36.605438,1.820108
72000,2.181118,-0.308852,9.646238,-3.072828,41.826813,2.491864
76000,2.233790,-0.308852,9.885659,-2.385804,47.613071,3.209421
80000,2.308010,-0.304064,10.046070,-1.469774,52.987118,3.163620
84000,2.375048,-0.289698,10.089166,-0.462140,57.368797,3.056749
88000,2.415750,-0.241814,10.220847,0.514959,61.719944,2.919345
92000,2.451663,-0.208296,10.266336,1.843203,66.529106,2.415528
96000,2.434903,-0.129287,10.034100,2.713432,71.796280,1.713238
100000,2.343924,-0.193930,9.935937,3.324119,77.475670,1.881177
104000,2.085350,-0.155623,9.622296,2.408089,81.796280,1.530032
108000,1.996764,-0.174777,9.442732,1.629462,86.544373,1.713238
112000,1.754950,-0.184354,9.162610,0.056943,91.781013,2.476597
116000,1.572991,-0.215478,9.270349,-2.065194,96.895523,3.652169
120000,1.438915,-0.275333,9.057265,-4.263667,102.071091,4.629269
124000,1.242591,-0.282516,9.102755,-6.538477,106.819183,5.820108
128000,1.103727,-0.397437,9.107543,-8.034659,111.063461,7.530032
132000,1.082179,-0.533907,9.550470,-8.874354,116.300102,8.873543
136000,1.060631,-0.598550,9.861717,-9.027026,123.628342,10.888810
140000,0.984017,-0.689530,10.026917,-9.088095,129.674133,12.720871
144000,0.902614,-0.763750,10.105926,-8.584278,136.574905,14.781940
148000,0.974440,-0.706290,10.295067,-8.355270,143.093979,16.430796
152000,1.024718,-0.773327,10.287885,-8.004126,149.567261,17.835377
156000,1.060631,-0.730232,10.297462,-7.698782,156.727570,19.102551
160000,1.053449,-0.723049,10.409989,-7.866721,164.742844,20.537666
164000,0.995988,-0.696713,10.321404,-9.164431,173.674133,22.201788
168000,0.986411,-0.641646,10.225636,-12.187331,184.239029,24.446062
172000,1.055843,-0.735020,10.156203,-15.622445,197.872604,27.316292
176000,0.938527,-0.603339,10.031705,-19.133896,213.368790,29.926979
180000,0.873884,-0.598550,9.610326,-22.569010,229.429871,33.148354
184000,0.507571,-0.600945,9.239224,-25.607178,242.483292,35.591103
188000,0.222661,-0.593762,9.085996,-29.240765,252.880249,37.682705
192000,-0.150835,-0.648829,8.777143,-31.393436,260.773376,39.591103
196000,-0.478840,-0.651223,8.473080,-33.408703,265.597809,40.354462
200000,-0.727837,-0.725443,8.391677,-34.340004,268.269562,40.400261
204000,-0.926556,-0.751779,8.336611,-34.095726,267.384064,39.957512
208000,-1.367089,-0.881066,8.506598,-31.866718,263.139801,39.072018
212000,-1.568202,-0.998382,8.525752,-28.675880,257.964233,38.171253
216000,-1.630451,-0.976834,8.748413,-25.011759,254.254288,36.568199
220000,-1.843535,-0.940921,8.686164,-21.744583,249.796280,35.316292
224000,-2.080561,-0.905008,8.588001,-17.836185,245.063446,33.820110
228000,-2.133234,-0.878672,8.635885,-14.767484,239.872604,32.247589
232000,-2.260126,-0.794875,8.638280,-11.698782,235.964218,30.812475
236000,-2.260126,-0.730232,8.626308,-9.515575,234.162689,29.636902
240000,-2.298434,-0.713472,8.537724,-8.492675,234.788635,29.652170
244000,-2.358289,-0.598550,8.494628,-8.340003,236.712311,28.614002
248000,-2.633622,-0.620098,8.104373,-9.317102,238.803909,29.301025
252000,-2.887407,-0.478840,7.963115,-13.775117,242.712311,31.010948
256000,-2.798822,-0.505177,8.022970,-18.294201,252.452759,34.415527
260000,-2.547431,-0.481235,7.987057,-22.996490,267.750488,38.247589
264000,-2.671929,-0.474052,7.611167,-27.912521,284.468048,41.972782
268000,-2.966416,-0.390255,7.302315,-32.874355,299.765747,45.865910
272000,-3.327940,-0.395043,6.837840,-36.431606,308.376434,48.171253
276000,-3.457227,-0.416591,6.593631,-39.439240,315.231415,50.552933
280000,-3.766079,-0.452504,6.519411,-41.423973,318.055847,51.331558
284000,-4.058172,-0.502782,6.572083,-41.775116,318.330627,52.140720
288000,-4.149151,-0.651223,6.952762,-40.004124,316.025299,51.713238
292000,-4.288015,-0.713472,6.998251,-35.591911,313.872620,51.728504
296000,-4.458004,-0.782904,7.019799,-30.110996,309.185608,51.148354
300000,-4.718972,-0.814029,6.687006,-24.248400,300.452789,49.117817
304000,-4.874595,-0.746991,6.524199,-18.614811,291.735229,46.507130
308000,-5.195418,-0.651223,6.210559,-14.416339,282.177979,44.843010
312000,-5.415684,-0.579397,6.102820,-11.744583,272.055847,43.087284
316000,-5.279215,-0.620098,6.098032,-9.225499,268.605438,43.392628
320000,-5.501875,-0.478840,5.894525,-8.935423,266.330627,42.904079
324000,-5.700594,-0.289698,5.652710,-10.126263,260.605438,42.919346
328000,-5.161899,-0.292093,5.916072,-11.637713,267.948975,46.201790
332000,-4.778827,-0.337582,6.028600,-14.904889,279.750488,48.614002
336000,-4.750096,-0.208296,5.779603,-19.072826,294.468048,51.148354
340000,-5.020641,0.011971,5.025429,-24.172064,305.857361,54.125454
344000,-5.037400,0.035913,4.630386,-31.714046,319.139801,58.018581
348000,-4.781221,0.040701,4.345476,-37.439240,338.742859,62.232323
352000,-5.121197,0.146046,3.833117,-44.675880,349.338287,64.186523
356000,-5.377377,0.124498,3.574543,-49.301834,360.116913,66.308655
360000,-5.635951,-0.076614,3.459621,-53.194965,364.941315,67.148354
364000,-5.446809,0.079009,3.315969,-59.164429,372.620728,67.667435
368000,-5.978322,-0.119710,3.428497,-59.256031,378.926056,69.988045
372000,-6.174646,-0.177171,3.411737,-55.973591,378.483307,69.346825
376000,-6.375759,-0.198719,3.174711,-50.446873,381.506226,70.003311
380000,-7.271191,-0.019154,2.276886,-47.088093,370.162689,67.087288
384000,-7.733272,0.031125,1.692701,-40.019390,356.361176,65.881180
388000,-8.008605,-0.019154,1.197101,-35.225498,340.712311,64.018585
392000,-8.197746,0.028730,1.022324,-30.034660,325.399353,60.644535
396000,-8.583213,-0.088585,0.579397,-24.278934,310.605438,58.323925
400000,-8.932767,0.028730,0.483629,-20.416338,295.277222,57.713238
404000,-8.473080,0.093374,0.308852,-18.904888,282.971863,56.476597
408000,-7.927202,0.002394,0.248997,-17.118628,283.674164,56.858276
412000,-7.783550,0.234632,0.081403,-16.340002,287.643616,56.614002
416000,-8.066066,0.366313,-0.744597,-18.569010,288.284851,58.049118
420000,-7.797915,0.641646,-1.000776,-22.859087,290.345917,59.392628
424000,-7.601591,0.876278,-1.403002,-28.859085,291.536743,58.262856
428000,-7.316680,1.005565,-1.860295,-31.286568,298.147430,57.804840
432000,-7.781156,1.039083,-2.614468,-33.011757,297.735229,55.636902
436000,-8.231265,1.230620,-3.344700,-34.294201,291.322998,52.766674
440000,-8.058883,1.376666,-3.780444,-37.530842,283.628357,49.316292
444000,-8.753201,1.089362,-3.787627,-39.912521,273.735229,45.911713
448000,-9.042900,0.938527,-3.605668,-38.370537,263.719940,44.186520
452000,-9.572019,0.780510,-3.361459,-32.019390,245.093979,40.522400
456000,-9.832987,0.584185,-3.430891,-25.164431,224.651230,37.117817
460000,-10.070012,0.629675,-3.699042,-20.553743,204.773376,33.789574
464000,-10.019734,0.584185,-3.928885,-14.584277,190.132156,31.514767
468000,-10.295067,0.600945,-4.297592,-11.393438,171.490936,28.354460
472000,-10.230424,0.560243,-4.362236,-10.172065,154.086349,25.102551
476000,-10.122684,0.557849,-4.381389,-9.027026,141.307724,23.041483
480000,-9.916783,0.665588,-4.288015,-8.523210,132.177948,22.339193
484000,-9.586384,0.735020,-4.182671,-8.965958,125.826820,21.804842
488000,-9.461885,0.761356,-4.290410,-11.683515,121.032921,20.461330
492000,-9.387665,1.012747,-4.462792,-13.714049,117.887886,19.423162
496000,-9.416395,1.132457,-4.944026,-16.095728,114.605446,19.652170
500000,-9.153033,1.180341,-4.656722,-20.675880,110.513840,19.636902
504000,-8.724471,1.127669,-4.182671,-25.072826,110.529106,19.346827
508000,-8.324639,1.055843,-3.157952,-27.530842,115.185593,19.530033
512000,-8.271967,1.010353,-3.864242,-24.920155,127.628349,21.087284
516000,-8.446744,1.362301,-4.627992,-27.362904,136.468033,21.331558
520000,-8.796297,1.431733,-5.193024,-29.240765,134.773376,21.926979
524000,-8.872911,1.546654,-5.013458,-36.049927,123.750481,18.675070
528000,-8.264784,1.357512,-4.604050,-35.591911,125.200867,17.881178
532000,-8.327033,1.244985,-4.417302,-35.057560,128.101624,16.949881
536000,-8.865729,1.211466,-4.620809,-34.156796,121.445137,13.881176
540000,-8.817844,1.048660,-4.582502,-31.820919,116.651245,11.865910
544000,-9.165004,1.041478,-4.479551,-32.278934,101.948952,7.346826
548000,-8.839393,0.725443,-4.053383,-26.355270,97.322998,5.163620
552000,-9.004593,0.632069,-3.722984,-22.691147,91.048195,1.636902
556000,-9.323022,0.497994,-3.433285,-16.507942,81.414604,-1.309663
560000,-9.811439,0.466869,-3.842694,-12.691148,66.422234,-4.149358
564000,-9.667787,0.399832,-3.782839,-5.561378,60.574905,-5.050121
568000,-10.240001,0.557849,-4.278439,-1.683514,47.628342,-7.309663
572000,-10.268731,0.574608,-4.642357,0.759233,34.895515,-8.821114
576000,-10.364499,0.555455,-4.704607,2.469157,26.345898,-9.218060
580000,-10.474632,0.615310,-4.874595,2.652363,18.406965,-8.408899
584000,-10.398018,0.656011,-4.774038,1.629462,14.025287,-6.332563
588000,-10.295067,0.665588,-4.752491,-0.309469,11.338264,-3.752411
592000,-9.988609,0.861913,-4.704607,-2.340003,9.964218,-1.401266
596000,-9.876082,0.945710,-4.836287,-4.889622,9.368798,0.888810
600000,-9.646238,0.979228,-5.035006,-8.187331,9.109256,3.072016
604000,-9.368511,1.113304,-4.903325,-11.317102,10.513836,5.423162
608000,-8.927979,1.204283,-4.436456,-14.355271,17.109257,7.911711
612000,-8.722076,1.197101,-4.400543,-15.194964,26.177958,10.995680
616000,-8.789114,1.501164,-4.608838,-19.820919,23.811546,10.659802
620000,-8.420407,1.489193,-4.735731,-24.019392,23.231394,11.041482
624000,-7.936779,1.611298,-4.481946,-26.660612,33.842079,12.797207
628000,-7.716512,1.608904,-4.247314,-28.385803,43.002384,13.759039
632000,-7.601591,1.675941,-3.955221,-30.462139,44.574905,11.468963
636000,-7.474698,1.539472,-3.711013,-30.492676,47.399334,9.301023
640000,-7.558495,1.391031,-3.687071,-27.668247,53.796280,8.537665
644000,-8.085219,1.441309,-3.813963,-27.225498,56.635975,6.568200
648000,-8.365341,1.343147,-3.749320,-23.088095,56.422234,5.423162
652000,-8.817844,0.943315,-3.636792,-22.309467,49.567272,4.201787
656000,-8.997410,1.086968,-3.902549,-18.477407,38.391701,0.766673
660000,-8.690952,0.883460,-3.897760,-12.630080,38.712311,1.606368
664000,-9.251195,1.027112,-3.852271,-10.187331,32.651241,-0.637907
668000,-9.390059,0.890643,-4.242526,-6.355270,22.559637,-2.240961
672000,-9.416395,0.921768,-4.211401,-2.752217,15.552004,-2.851648
676000,-9.528923,0.938527,-4.163517,1.064577,7.322997,-4.378365
680000,-9.643845,0.881066,-4.402937,4.392821,-0.951812,-5.599739
684000,-9.710882,0.873884,-4.577713,7.110379,-9.073950,-6.103556
688000,-9.734824,0.952892,-4.496311,8.408089,-16.692270,-5.981419
692000,-9.461885,0.912191,-4.292804,8.484425,-20.860210,-5.111189
696000,-9.155427,1.012747,-4.129998,7.385188,-20.585400,-3.462335
700000,-8.872911,1.120486,-4.010288,5.186715,-17.165552,-1.798213
704000,-8.576031,1.285686,-4.225766,0.881371,-11.837309,0.415528
708000,-8.425196,1.340753,-4.355053,-3.744583,-5.257155,1.896444
712000,-8.303091,1.414973,-4.285621,-7.958323,1.170325,3.056749
716000,-8.226477,1.338359,-4.307169,-10.920156,7.658875,3.942245
720000,-8.377312,1.300052,-4.367024,-13.439240,12.101623,4.491864
724000,-8.480263,1.230620,-4.237737,-15.256034,15.567271,4.675070
728000,-8.643068,1.113304,-4.101267,-16.599545,17.429867,5.270490
732000,-8.513782,1.031901,-3.936068,-16.904888,19.292461,5.560566
736000,-8.621520,0.986411,-3.804387,-16.660612,21.903149,5.743773
740000,-8.702923,0.943315,-3.976769,-16.401072,23.292461,5.499497
744000,-8.884883,0.936133,-3.971981,-15.805652,22.697042,5.377360
748000,-8.899248,0.881066,-4.029441,-14.355271,21.781012,5.010948
752000,-9.002198,0.840365,-4.034230,-12.309468,19.872616,4.171253
756000,-9.035717,0.778116,-3.957615,-10.416339,16.300097,3.468963
760000,-9.050082,0.670376,-3.849876,-7.133897,12.300096,2.400261
764000,-9.028535,0.658405,-3.790021,-3.454507,8.269562,1.285757
768000,-9.038112,0.670376,-3.859453,-0.019392,3.322997,0.125452
772000,-8.995016,0.617704,-3.869030,3.537859,-2.524331,-1.508136
776000,-9.026140,0.663194,-3.871424,6.331753,-6.890743,-2.424167
780000,-8.925584,0.790087,-3.861847,7.705798,-9.806774,-2.546304
784000,-8.801085,0.881066,-3.876213,7.934806,-10.677003,-2.500503
788000,-8.645462,0.981623,-3.991134,6.988241,-9.150286,-2.195159
792000,-8.590396,1.012747,-4.086902,5.644730,-7.089217,-2.240961
796000,-8.619126,1.017536,-4.177882,4.423356,-4.829675,-2.256228
800000,-8.599973,1.086968,-4.249708,3.598928,-3.760972,-2.286762
804000,-8.678981,1.055843,-4.261679,2.148547,-3.318224,-2.088289
808000,-8.554482,1.077391,-4.053383,0.545493,-1.944179,-1.340197
812000,-8.427590,1.051055,-4.089296,-0.950690,2.330631,-0.882182
816000,-8.470686,1.043872,-4.010288,-2.736950,6.269562,-0.195159
820000,-8.614338,1.022324,-4.218584,-4.752217,9.964218,0.766673
824000,-8.848969,0.952892,-4.338294,-6.202599,11.445134,1.026215
828000,-9.042900,0.962469,-4.477157,-8.034659,10.651241,1.667436
832000,-8.877700,0.883460,-4.232949,-9.118629,9.597806,2.033848
836000,-8.528147,0.792481,-3.739743,-9.133897,11.918416,2.751406
840000,-8.449138,0.821211,-3.646369,-7.943057,15.750477,2.812474
844000,-8.640674,0.847547,-3.962404,-7.637713,16.101622,2.705604
848000,-8.753201,0.849942,-4.223372,-7.225499,14.819180,2.278123
852000,-8.686164,0.890643,-4.458004,-6.904889,13.322997,1.667436
856000,-8.796297,0.890643,-4.398149,-6.217866,11.246661,1.010948
860000,-8.798691,0.797269,-4.285621,-4.691149,8.422234,0.339192
864000,-8.937555,0.845153,-4.197036,-2.706415,4.513837,-0.271495
868000,-8.968679,0.811634,-4.082114,-0.889621,0.177959,-1.263861
872000,-8.889671,0.826000,-4.141969,1.430989,-4.478529,-1.966151
876000,-8.762778,0.785298,-4.065354,3.110379,-7.211354,-2.958518
880000,-8.923190,0.811634,-4.010288,4.667631,-9.318225,-3.553938
884000,-8.923190,0.790087,-4.034230,6.209615,-11.440362,-4.347831
888000,-9.100361,0.761356,-4.153940,7.858470,-14.631202,-5.095922
892000,-9.145850,0.792481,-4.218584,9.003509,-18.249523,-4.897449
896000,-9.035717,0.787692,-4.005499,9.415722,-21.318224,-4.943251
900000,-8.810662,0.802058,-3.952827,9.339386,-21.776239,-5.050121
904000,-8.482656,0.737414,-3.679888,9.079844,-18.677004,-4.760045
908000,-8.595184,0.787692,-3.842694,8.148546,-15.196087,-4.149358
912000,-8.535329,0.859518,-3.933673,6.637096,-12.447996,-3.630274
916000,-8.609550,0.806846,-4.007894,4.911905,-9.593034,-3.324930
920000,-8.710106,0.921768,-4.118027,3.095111,-7.211354,-2.836380
924000,-8.683769,0.905008,-4.053383,0.972974,-5.012881,-2.088289
928000,-8.528147,0.871489,-4.053383,-1.225499,-1.822041,-1.340197
932000,-8.504205,0.943315,-4.007894,-3.714049,2.956585,-0.210426
936000,-8.588001,0.957681,-4.084508,-5.988858,7.109257,0.354459
940000,-8.628703,0.897826,-4.225766,-7.759851,10.895515,0.949879
944000,-8.774749,0.948104,-4.216189,-9.393438,13.338264,1.270490
948000,-8.853758,0.871489,-4.213795,-10.431606,14.223760,1.377360
952000,-8.992621,0.907402,-4.010288,-10.920156,13.872615,1.697971
956000,-9.184157,0.687136,-3.991134,-10.706415,12.620707,1.499497
960000,-9.220071,0.656011,-3.825934,-9.820919,10.651241,1.713238
964000,-9.188946,0.679953,-3.816358,-8.401072,7.964219,1.530032
968000,-9.026140,0.634463,-3.718195,-6.492675,5.719944,1.530032
972000,-8.884883,0.627281,-3.588908,-4.126263,3.322997,0.415528
976000,-8.877700,0.665588,-3.438074,-1.332370,0.116890,-0.531037
980000,-8.690952,0.553061,-3.349488,2.011142,-0.249522,-0.637907
984000,-9.160215,0.742203,-3.900155,1.079844,-6.493797,-2.943251
988000,-8.901642,1.096544,-3.301604,5.965341,-0.295324,-2.332564
992000,-9.232041,0.866701,-4.369418,3.843203,-16.493797,-5.431800
996000,-8.635885,0.852336,-4.034230,7.369921,-9.501431,-3.782945
1000000,-9.294291,0.912191,-4.197036,6.820302,-13.226622,-4.866915
1004000,-9.097966,0.914585,-4.388572,6.530226,-16.677004,-5.553937
1008000,-9.181764,0.914585,-4.424485,6.270684,-19.257156,-5.523403
1012000,-9.021352,0.768539,-3.849876,8.102745,-21.898378,-5.324930
1016000,-8.473080,0.799663,-3.201048,10.347020,-18.402195,-4.424167
1020000,-8.238448,0.814029,-3.071761,12.026409,-12.661736,-4.240961
1024000,-8.250419,0.897826,-3.481169,11.889005,-6.677003,-4.118823
1028000,-8.588001,0.979228,-4.058172,9.965341,-3.318224,-3.981419
1032000,-8.690952,1.051055,-4.295198,7.537859,-2.173186,-3.905083
1036000,-8.820239,1.041478,-4.364630,5.950073,-1.089217,-3.844014
1040000,-8.975863,1.007959,-4.441244,5.171447,-0.295324,-3.401266
1044000,-9.143456,0.979228,-4.496311,4.163814,-0.921278,-3.340197
1048000,-9.200917,0.950498,-4.537012,3.400455,-2.890743,-2.973785
1052000,-9.081207,0.984017,-4.498705,2.820302,-4.646469,-2.897449
1056000,-9.126697,0.912191,-4.302381,1.659997,-6.066316,-2.897449
1060000,-8.851364,0.797269,-4.036624,0.911905,-6.096850,-2.592106
1064000,-8.753201,0.689530,-3.591303,0.484424,-3.287690,-2.790579
1068000,-8.777143,0.675165,-3.643975,1.064577,0.635974,-2.515770
1072000,-9.090784,0.682347,-3.797204,1.156180,2.864982,-2.271495
1076000,-9.380483,0.663194,-4.173094,1.079844,1.536737,-1.844014
1080000,-9.469068,0.756568,-4.323928,0.423356,-1.791507,-1.798213
1084000,-9.481039,0.761356,-4.290410,-0.126262,-4.982347,-1.401266
1088000,-9.471462,0.749385,-4.216189,-0.110996,-7.135018,-1.401266
1092000,-9.344569,0.675165,-4.015076,-0.263667,-8.524332,-0.637907
1096000,-9.205706,0.787692,-4.046201,-0.385804,-9.318225,-0.286762
1100000,-8.925584,0.756568,-3.931279,-0.462140,-8.967080,0.049116
1104000,-8.786720,0.679953,-3.639187,-0.233133,-6.875476,0.415528
1108000,-8.611943,0.787692,-3.801992,-0.217866,-3.837308,0.323925
1112000,-8.760384,0.854730,-3.945644,-0.126262,-1.867843,0.384994
1116000,-8.865729,0.885855,-4.182671,-0.492675,-1.364026,0.262856
1120000,-8.882488,0.866701,-4.297592,-0.706415,-1.318224,-0.011953
1124000,-8.947132,0.883460,-4.434062,-1.469774,-1.883110,-0.057755
1128000,-9.026140,0.893037,-4.362236,-2.004125,-2.615934,-0.195159
1132000,-9.121908,0.895431,-4.343082,-1.943056,-3.730438,-0.240961
1136000,-9.035717,0.670376,-4.122815,-1.546110,-4.356392,0.308658
1140000,-8.947132,0.617704,-3.821146,-0.126262,-3.562499,0.278123
1144000,-8.841787,0.656011,-3.675100,1.049310,-2.585400,0.568200
1148000,-8.786720,0.684742,-3.610456,2.453890,-1.776240,0.354459
1152000,-8.798691,0.727837,-3.830723,3.324119,-1.883110,0.369726
1156000,-8.755595,0.746991,-3.766079,3.934806,-2.280056,-0.057755
1160000,-8.896853,0.814029,-3.849876,4.545493,-2.951812,-0.546304
1164000,-8.724471,0.806846,-3.703830,4.789768,-3.180820,-0.653174
1168000,-8.504205,0.778116,-3.531447,4.850837,-2.127385,-0.531037
1172000,-8.520964,0.826000,-3.699042,4.530226,0.040554,-0.531037
1176000,-8.394072,0.948104,-3.885789,3.904272,2.086356,-0.744777
1180000,-8.602366,0.945710,-4.003105,2.667631,3.597806,-0.927984
1184000,-8.774749,0.986411,-4.273650,1.614195,4.147425,-0.958518
1188000,-8.904037,0.972046,-4.211401,0.621829,3.490936,-0.729510
1192000,-8.784326,0.969652,-4.046201,-0.721682,3.338264,-0.760045
1196000,-8.772355,0.952892,-4.062960,-1.423972,4.681776,-0.408900
1200000,-8.592790,0.907402,-3.955221,-2.034660,7.185593,-0.103556
1204000,-8.602366,0.842759,-4.125209,-2.248400,9.704676,0.140719
1208000,-8.724471,0.864307,-4.285621,-3.149163,11.994752,-0.164625
1212000,-8.963891,0.909797,-4.541800,-4.156797,11.155058,-0.500503
1216000,-9.097966,0.897826,-4.556166,-5.072827,9.445134,-0.653174
1220000,-9.119514,0.806846,-4.491522,-5.500309,7.460402,-0.637907
1224000,-9.311050,0.852336,-4.352659,-5.347637,4.666509,-1.050121
1228000,-9.289502,0.742203,-4.268862,-5.118629,1.643608,-0.836380
1232000,-9.227253,0.684742,-4.118027,-4.813286,-1.104484,-0.561571
1236000,-9.109938,0.667982,-4.067749,-4.370538,-3.241888,-0.714243
1240000,-8.904037,0.675165,-3.924097,-3.851454,-4.539598,-0.424167
1244000,-8.829816,0.715866,-3.967192,-2.782751,-5.089217,-1.004319
1248000,-8.757990,0.658405,-3.773262,-1.820919,-6.173186,-1.447067
1252000,-8.662222,0.782904,-3.648763,-0.736950,-7.287690,-1.996686
1256000,-8.588001,0.888249,-3.660734,0.102745,-6.768606,-2.134090
1260000,-8.671799,0.902614,-3.792415,0.438623,-6.493797,-2.485235
1264000,-8.671799,0.866701,-3.588908,0.285951,-6.936545,-2.989052
1268000,-8.805874,0.854730,-3.588908,0.698165,-6.997613,-2.866915
1272000,-8.765172,0.861913,-3.581726,1.171447,-6.753339,-2.760045
1276000,-8.753201,0.936133,-3.643975,1.537859,-6.371659,-2.866915
1280000,-8.841787,0.924162,-3.660734,1.507325,-5.867843,-2.866915
1284000,-8.848969,0.828394,-3.603274,1.369921,-4.646469,-2.653174
1288000,-8.827422,0.768539,-3.495534,0.789768,-3.257156,-2.149358
1292000,-8.674192,0.735020,-3.186682,1.171447,0.574905,-0.912716
1296000,-8.602366,0.675165,-3.177106,1.629462,5.964219,-0.149358
1300000,-8.820239,0.746991,-3.416526,2.484425,9.093989,0.201787
1304000,-9.095572,0.751779,-3.790021,2.759233,9.216126,0.308658
1308000,-9.136273,0.713472,-3.974375,3.171447,6.941318,0.033849
1312000,-9.179369,0.691924,-4.015076,4.224883,4.605440,-0.622640
1316000,-9.224859,0.651223,-4.039018,5.217249,3.048188,-0.866915
1320000,-9.311050,0.694318,-4.086902,6.118012,1.368798,-1.050121
1324000,-9.315839,0.701501,-4.163517,6.255417,-0.814408,-0.851648
1328000,-9.344569,0.797269,-4.264073,6.118012,-2.615934,-0.469968
1332000,-9.160215,0.837971,-4.307169,5.568394,-3.226621,-0.027220
1336000,-9.138668,0.919373,-4.479551,4.911905,-3.837308,0.125452
1340000,-9.045294,0.921768,-4.367024,3.889004,-4.799140,0.400261
1344000,-8.944737,0.890643,-4.426879,3.003508,-5.715171,0.033849
1348000,-8.875306,0.938527,-4.271256,2.545493,-6.631201,-0.134090
1352000,-8.690952,0.878672,-4.141969,2.011142,-5.577766,-0.195159
1356000,-8.444349,0.888249,-3.890578,1.766867,-3.180820,-0.408900
1360000,-8.449138,0.837971,-3.869030,1.247783,0.223760,-0.607373
1364000,-8.597578,0.907402,-3.969586,0.560760,2.651241,-0.500503
1368000,-8.667010,0.835576,-4.201824,0.301218,4.620707,-0.851648
1372000,-8.947132,0.931344,-4.443638,-0.065194,4.177959,-0.958518
1376000,-9.040505,0.871489,-4.441244,-0.462140,2.498570,-1.126457
1380000,-9.018958,0.957681,-4.441244,-1.256034,0.926050,-1.187526
1384000,-8.944737,0.905008,-4.378995,-1.622446,-0.157919,-1.523403
1388000,-8.916007,0.909797,-4.343082,-1.805652,-0.707537,-1.553938
1392000,-8.896853,0.859518,-4.228160,-1.820919,-1.486163,-1.966151
1396000,-8.841787,0.775721,-4.036624,-1.652980,-2.356392,-2.149358
1400000,-8.851364,0.708684,-3.847482,-1.683514,-2.493797,-2.393632
1404000,-8.892065,0.778116,-3.866636,-1.546110,-2.524331,-2.469968
1408000,-8.887277,0.749385,-3.876213,-1.408705,-3.287690,-2.469968
1412000,-8.820239,0.684742,-3.646369,-0.798018,-3.241888,-2.439434
1416000,-8.698134,0.579397,-3.373430,0.667630,-1.379293,-2.576838
1420000,-8.753201,0.658405,-3.351882,1.995875,-0.280056,-2.729510
1424000,-8.904037,0.653617,-3.500323,2.453890,-0.402194,-2.653174
1428000,-9.011775,0.682347,-3.505111,3.324119,-0.829675,-2.424167
1432000,-8.997410,0.656011,-3.483563,3.766867,-0.967079,-2.317297
1436000,-8.872911,0.600945,-3.339911,4.499691,-0.218988,-1.767678
1440000,-8.875306,0.572214,-3.347094,5.492058,1.750478,-1.233327
1444000,-8.717288,0.644040,-3.292027,5.995875,3.353531,-0.897449
1448000,-8.841787,0.823605,-3.773262,5.904272,4.422234,-0.714243
1452000,-8.889671,0.883460,-3.897760,5.110379,4.819180,-0.500503
1456000,-9.009381,0.902614,-4.096479,4.499691,4.162692,-0.454701
1460000,-9.033323,0.905008,-4.321534,3.858470,2.910783,-0.240961
1464000,-9.016563,0.900220,-4.350265,2.881371,1.765745,0.079650
1468000,-8.997410,1.000776,-4.369418,2.072211,1.399333,0.354459
1472000,-9.006987,1.003170,-4.563348,0.652363,1.124524,0.537665
1476000,-8.980651,1.017536,-4.728549,-0.767484,0.987119,0.797207
1480000,-8.935161,0.993594,-4.766856,-2.126262,0.910783,1.148352
1484000,-8.959103,0.957681,-4.738125,-3.042293,-0.020514,1.209421
1488000,-8.848969,0.893037,-4.496311,-3.759850,-1.180820,0.522398
1492000,-8.836999,0.773327,-4.474763,-3.729316,-1.577766,0.369726
1496000,-8.791509,0.723049,-4.216189,-3.515576,-2.310591,0.094917
1500000,-8.736442,0.725443,-4.005499,-2.645346,-2.325858,-0.210426
1504000,-8.791509,0.605733,-3.811569,-1.378171,-1.959446,-0.042487
1508000,-8.865729,0.612916,-3.919308,-0.813286,-3.043415,-0.408900
1512000,-8.798691,0.653617,-4.048595,-0.767484,-4.646469,-0.637907
1516000,-8.729259,0.768539,-4.007894,-0.874354,-5.486163,-1.095922
1520000,-8.592790,0.735020,-3.974375,-1.194965,-5.760972,-1.645541
1524000,-8.765172,0.794875,-3.825934,-0.904888,-5.822041,-1.950884
1528000,-8.765172,0.696713,-3.643975,-0.935423,-5.608301,-2.240961
1532000,-8.844181,0.658405,-3.639187,-0.721682,-5.104484,-2.149358
1536000,-8.820239,0.598550,-3.612850,-0.385804,-4.585400,-2.149358
1540000,-8.868123,0.603339,-3.608062,-0.080461,-3.989980,-2.088289
1544000,-8.820239,0.629675,-3.694253,0.041676,-3.089217,-1.950884
1548000,-8.865729,0.672771,-3.663129,0.118012,-2.539598,-1.615006
1552000,-8.820239,0.684742,-3.660734,0.118012,-1.135018,-1.691342
1556000,-8.722076,0.691924,-3.711013,0.453890,1.124524,-1.431800
1560000,-8.789114,0.727837,-3.818752,0.988241,3.307730,-1.309663
1564000,-8.904037,0.766145,-3.983952,0.789768,4.452768,-1.004319
1568000,-9.026140,0.816423,-4.189853,0.285951,4.269562,-1.218060
1572000,-9.006987,0.802058,-4.189853,-0.706415,4.071089,-0.805846
1576000,-9.018958,0.816423,-4.206613,-1.256034,4.513837,-0.225693
1580000,-8.918402,0.782904,-4.082114,-1.805652,4.849715,0.003314
1584000,-8.827422,0.797269,-4.177882,-2.126262,5.460402,-0.103556
1588000,-8.911219,0.818817,-4.139575,-2.385804,5.872615,-0.011953
1592000,-8.983045,0.866701,-4.168305,-2.767484,5.078722,-0.332564
1596000,-9.004593,0.859518,-4.240131,-2.843820,3.628341,-0.515770
1600000,-9.081207,0.840365,-4.074931,-2.828552,1.658875,-0.805846
1604000,-9.023746,0.780510,-4.170700,-2.431606,-0.463263,-1.080655
1608000,-9.184157,0.818817,-4.110844,-2.095728,-2.738072,-1.263861
1612000,-9.035717,0.677559,-3.926491,-1.805652,-4.844942,-1.767678
1616000,-8.987833,0.715866,-3.849876,-1.423972,-6.173186,-2.164625
1620000,-9.018958,0.670376,-3.806781,-0.843820,-7.135018,-2.485235
1624000,-8.918402,0.596156,-3.682282,-0.309469,-7.440361,-2.637907
1628000,-8.932767,0.545878,-3.581726,0.774501,-7.470896,-2.729510
1632000,-8.882488,0.562637,-3.691859,1.232516,-7.425095,-2.851648
1636000,-8.937555,0.514753,-3.588908,1.950073,-7.547232,-2.912716
1640000,-8.985439,0.416591,-3.548207,2.240149,-7.104484,-2.607373
1644000,-9.033323,0.426168,-3.562572,2.606562,-6.447995,-2.042487
1648000,-8.992621,0.416591,-3.596091,2.682898,-5.455629,-1.294396
1652000,-9.014170,0.560243,-3.682282,2.576027,-3.944179,-0.775312
1656000,-8.923190,0.577003,-3.768473,2.179081,-2.081583,0.125452
1660000,-8.753201,0.653617,-3.933673,2.026409,0.864982,0.766673
1664000,-8.774749,0.725443,-3.943250,1.736333,3.277195,0.812474
1668000,-8.784326,0.804452,-4.118027,1.430989,4.239028,0.827742
1672000,-8.925584,0.857124,-4.201824,1.201982,4.177959,0.827742
1676000,-8.923190,0.854730,-4.223372,0.469157,3.292463,0.919345
1680000,-8.825027,0.919373,-4.204218,-0.187331,3.124524,0.491864
1684000,-8.808268,0.938527,-4.192247,-0.477408,3.597806,0.598734
1688000,-8.760384,0.842759,-4.118027,-0.828552,4.147425,0.049116
1692000,-8.786720,0.907402,-4.103662,-0.981224,4.025287,0.278123
1696000,-8.841787,0.861913,-4.165911,-1.393438,3.414600,-0.103556
1700000,-8.880095,0.852336,-4.163517,-1.561377,1.948951,-0.210426
1704000,-8.841787,0.797269,-4.048595,-1.378171,0.544371,-0.561571
1708000,-8.817844,0.816423,-4.041412,-1.027026,-0.585400,-0.912716
1712000,-8.719683,0.735020,-3.869030,-0.981224,-1.425095,-1.156991
1716000,-8.669404,0.773327,-3.794810,-0.721682,-2.081583,-1.752411
1720000,-8.588001,0.802058,-3.727772,-0.340003,-1.470896,-2.027220
1724000,-8.722076,0.675165,-3.469198,0.072211,-1.241889,-1.950884
1728000,-8.741230,0.742203,-3.531447,0.240150,-1.104484,-2.317297
1732000,-8.791509,0.730232,-3.718195,0.866104,-1.409827,-2.454701
1736000,-8.829816,0.730232,-3.821146,1.293585,-2.585400,-2.653174
1740000,-8.868123,0.711078,-3.730166,1.583661,-4.142652,-3.111190
1744000,-8.848969,0.720655,-3.481169,2.545493,-5.012881,-3.462335
1748000,-8.813056,0.572214,-3.373430,3.889004,-4.554865,-3.721877
1752000,-8.858546,0.605733,-3.289633,4.896638,-3.531965,-3.538671
1756000,-8.925584,0.665588,-3.438074,5.308852,-2.631201,-3.431800
1760000,-8.980651,0.653617,-3.548207,5.492058,-1.623568,-3.340197
1764000,-9.057265,0.663194,-3.878607,5.064577,-0.768606,-2.866915
1768000,-9.102755,0.732626,-4.022259,4.316485,-0.707537,-2.607373
1772000,-9.210494,0.749385,-4.096479,3.644730,-0.631201,-2.271495
1776000,-9.155427,0.751779,-4.070143,3.003508,-0.051049,-1.782945
1780000,-9.193734,0.766145,-4.197036,2.163814,0.437501,-1.385999
1784000,-9.186552,0.790087,-4.141969,1.400455,0.803913,-0.882182
1788000,-9.160215,0.624887,-4.082114,0.453890,0.987119,-0.546304
1792000,-9.078813,0.591368,-4.144363,0.637096,1.735211,-0.363098
1796000,-9.107543,0.610521,-4.151546,0.713432,2.071089,-0.286762
1800000,-9.143456,0.593762,-4.228160,0.545493,1.811547,-0.256228
1804000,-9.131485,0.565032,-4.225766,0.087478,1.658875,0.217055
1808000,-9.203311,0.581791,-4.299986,-0.324736,1.032921,0.720871
1812000,-9.176975,0.548272,-4.249708,-0.706415,-0.234255,0.614001
1816000,-9.124303,0.639252,-4.465186,-0.920156,-1.654102,1.026215
1820000,-9.083601,0.624887,-4.347870,-1.622446,-2.356392,0.980413
1824000,-8.963891,0.651223,-4.381389,-2.431606,-3.379293,0.934612
1828000,-8.937555,0.696713,-4.273650,-2.767484,-4.188453,0.812474
1832000,-8.724471,0.667982,-4.043807,-2.935423,-4.142652,0.614001
1836000,-8.664616,0.629675,-3.859453,-2.462140,-2.127385,0.812474
1840000,-8.623915,0.749385,-3.900155,-2.263667,-1.180820,0.751406
1844000,-8.686164,0.730232,-4.019865,-2.187331,-1.119751,0.278123
1848000,-8.817844,0.842759,-4.185065,-2.660614,-1.211354,0.110184
1852000,-8.875306,0.806846,-4.295198,-3.057560,-2.432728,-0.195159
1856000,-8.872911,0.888249,-4.235343,-3.057560,-3.440362,-0.134090
1860000,-8.947132,0.849942,-4.120421,-3.301835,-4.325858,-0.500503
1864000,-8.779537,0.883460,-4.149151,-3.164430,-4.875476,-0.882182
1868000,-8.774749,0.893037,-4.055778,-3.149163,-5.226621,-1.111190
1872000,-8.798691,0.881066,-4.036624,-3.347636,-5.348759,-1.599739
1876000,-8.760384,0.888249,-3.892972,-3.729316,-5.684637,-1.889816
1880000,-8.619126,0.797269,-3.725378,-3.439240,-5.913644,-1.950884
1884000,-8.458714,0.672771,-3.533842,-2.416339,-4.066316,-2.866915
1888000,-8.556877,0.706290,-3.526659,-1.179698,-2.112118,-3.004319
1892000,-8.698134,0.679953,-3.598485,-0.202598,-1.012881,-3.355464
1896000,-8.820239,0.658405,-3.708618,0.545493,-1.119751,-3.706610
1900000,-8.853758,0.653617,-3.672705,1.079844,-2.066316,-3.630274
1904000,-8.951921,0.636858,-3.689465,1.812669,-2.738072,-3.721877
1908000,-8.947132,0.732626,-3.603274,1.827936,-2.554866,-3.492869
1912000,-8.896853,0.593762,-3.296816,1.980608,-0.997614,-2.821113
1916000,-8.841787,0.615310,-3.390190,2.102745,0.681776,-2.134090
1920000,-8.817844,0.567426,-3.354277,2.118012,2.926050,-1.553938
1924000,-8.947132,0.658405,-3.569755,2.896638,4.834447,-1.156991
1928000,-9.088389,0.718261,-3.813963,2.759233,4.895516,-0.805846
1932000,-9.203311,0.756568,-4.003105,2.377554,4.025287,-0.744777
1936000,-9.212888,0.794875,-4.103662,1.965340,3.017654,-1.034854
1940000,-9.248801,0.821211,-4.141969,1.263050,2.437501,-0.363098
1944000,-9.169792,0.723049,-4.034230,0.499691,1.857348,-0.195159
1948000,-9.193734,0.677559,-3.993528,-0.248400,1.536737,0.247589
1952000,-9.179369,0.706290,-3.948039,-0.859087,1.414600,0.507131
1956000,-9.093178,0.679953,-3.897760,-0.843820,1.261928,0.995681
1960000,-9.109938,0.694318,-3.928885,-1.210232,0.880249,1.026215
1964000,-9.090784,0.651223,-4.062960,-0.950690,-0.402194,1.117818
1968000,-8.997410,0.670376,-4.048595,-0.950690,-1.638835,0.980413
1972000,-8.968679,0.670376,-4.015076,-0.538476,-2.936545,0.766673
1976000,-8.880095,0.730232,-3.962404,-0.355270,-3.409827,0.675070
1980000,-8.755595,0.737414,-3.885789,-0.324736,-3.272423,0.384994
1984000,-8.710106,0.804452,-3.919308,-0.248400,-2.631201,0.476597
1988000,-8.741230,0.806846,-4.039018,-0.538476,-2.081583,0.125452
1992000,-8.750807,0.840365,-4.180276,-0.752217,-2.218988,0.201787
1996000,-8.669404,0.816423,-4.161122,-0.630080,-2.081583,-0.561571
