time_us,ax,ay,az,gx,gy,gz
0,0.507571,-0.007183,8.774749,3.171447,0.086356,0.339192
4000,0.600945,-0.016759,8.724471,3.156180,0.330631,0.339192
8000,0.584185,-0.059855,8.635885,2.331753,0.452768,0.644536
12000,0.629675,-0.007183,8.535329,1.675264,0.864982,0.690337
16000,0.615310,0.079009,8.552089,0.774501,1.048188,0.384994
20000,0.670376,0.047884,8.485051,0.499691,0.803913,0.446062
24000,0.737414,0.081403,8.516175,-0.324736,0.315363,-0.286762
28000,0.682347,0.081403,8.657434,-0.248400,-0.570133,-0.485235
32000,0.751779,0.014365,8.559271,-0.752217,-1.333492,-0.805846
36000,0.656011,0.062249,8.497022,-0.889621,-1.699904,-1.233327
40000,0.711078,0.021548,8.480263,-1.378171,-2.341125,-1.477602
44000,0.656011,0.002394,8.614338,-1.668247,-2.692270,-1.447067
48000,0.639252,-0.002394,8.707711,-1.912522,-2.768606,-1.462335
52000,0.653617,-0.064643,8.865729,-2.446873,-2.218988,-1.477602
56000,0.725443,-0.086191,8.813056,-2.141530,-1.073950,-1.263861
60000,0.505177,-0.021548,8.722076,-3.637713,-3.058682,-1.920350
64000,0.818817,-0.172383,8.908825,-1.607178,3.063455,-0.622640
68000,0.541090,-0.081403,8.815451,-1.851454,1.994753,-0.698976
72000,0.512359,-0.112527,8.738836,-2.126262,1.445134,-0.637907
76000,0.486023,-0.189142,8.700529,-2.401072,2.926050,0.064383
80000,0.418985,-0.134075,8.702923,-2.340003,0.605440,-0.531037
84000,0.639252,-0.126893,8.815451,-1.423972,3.719944,0.614001
88000,0.567426,-0.052672,8.899248,-1.927789,3.643608,0.644536
92000,0.691924,-0.117316,8.899248,-1.240766,3.887883,0.415528
96000,0.644040,-0.110133,8.975863,-0.813286,4.803913,0.262856
100000,0.560243,-0.110133,9.054871,-0.172064,5.155058,-0.256228
104000,0.452504,-0.205901,9.064447,0.743966,4.391699,-0.408900
108000,0.411803,-0.136469,8.844181,1.598928,2.880249,-0.714243
112000,0.471658,-0.095768,8.760384,2.072211,1.613073,-0.882182
116000,0.586579,-0.141258,8.801085,2.438623,1.307730,-1.340197
120000,0.584185,-0.026336,8.655039,2.728699,1.246661,-1.584472
124000,0.524330,-0.107739,8.738836,2.377554,1.475669,-1.676075
128000,0.565032,-0.067038,8.535329,1.583661,2.116890,-1.538671
132000,0.471658,-0.083797,8.475474,0.148546,2.819180,-1.401266
136000,0.390255,-0.107739,8.456321,-1.179698,3.170325,-1.156991
140000,0.325611,-0.059855,8.501810,-2.660614,3.826814,-0.439434
144000,0.332794,-0.134075,8.676587,-3.301835,4.635974,0.049116
148000,0.306458,-0.174777,8.726865,-3.805652,5.277195,0.949879
152000,0.390255,-0.124498,8.815451,-4.401072,6.727577,1.331558
156000,0.411803,-0.174777,8.707711,-4.736950,7.826814,1.957513
160000,0.299275,-0.184354,8.935161,-4.721683,9.002386,1.972780
164000,0.330400,-0.193930,8.870518,-4.813286,10.315363,2.629268
168000,0.227449,-0.256180,8.841787,-5.057561,11.506203,3.255223
172000,0.237026,-0.225055,8.765172,-5.805653,12.590172,4.140719
176000,0.241814,-0.160412,8.710106,-6.553743,13.597806,5.148353
180000,0.263362,-0.225055,8.700529,-7.561378,14.513836,5.346826
184000,0.375890,-0.227449,8.894460,-7.668247,15.322997,5.667437
188000,0.481235,-0.177171,9.107543,-7.530843,16.635973,5.926979
192000,0.469264,-0.155623,9.143456,-6.736950,17.216125,5.621635
196000,0.430956,-0.150835,9.030929,-5.912522,17.200859,5.346826
200000,0.433351,-0.129287,8.923190,-5.347637,16.483301,4.934612
204000,0.450110,-0.158017,8.777143,-4.553743,15.552004,4.033849
208000,0.481235,-0.069432,8.729259,-3.866720,14.697042,3.239955
212000,0.471658,-0.098162,8.652645,-3.225499,12.971851,2.217055
216000,0.521936,-0.026336,8.695741,-3.088094,11.689409,1.682703
220000,0.502782,-0.090980,8.726865,-3.072828,11.567271,0.949879
224000,0.521936,-0.153229,8.810662,-3.149163,11.246661,-0.164625
228000,0.660800,-0.095768,8.628703,-4.843820,15.597805,-0.286762
232000,0.325611,-0.143652,8.616732,-5.072827,15.567271,-0.469968
236000,0.198719,-0.071826,8.626308,-6.553743,17.139790,-0.118823
240000,0.064643,-0.311246,9.131485,-4.981225,12.315363,-0.424167
244000,0.181959,-0.380678,9.392453,-3.988858,13.536737,0.446062
248000,0.840365,-0.220267,9.102755,-7.851454,19.628340,-0.485235
252000,-0.090980,-0.368707,9.217676,-10.782751,25.490936,1.530032
256000,-0.055067,-0.497994,9.191340,-4.935423,25.735210,4.049116
260000,2.626439,-0.380678,8.561666,-5.591911,42.132156,7.926979
264000,-1.807622,1.005565,9.543288,-12.645347,19.994753,4.308658
268000,0.507571,-0.746991,10.445902,-8.065194,28.269562,6.888811
272000,0.102951,-0.553061,10.316615,-6.706415,34.651241,9.178886
276000,0.040701,-0.526724,10.077195,-5.546110,34.498569,10.262856
280000,0.490811,-0.596156,10.314221,-4.904889,40.345898,11.697970
284000,0.720655,-0.574608,10.350134,-4.767485,47.307728,12.675070
288000,1.084573,-0.557849,10.328587,-6.477407,61.109257,13.942245
292000,0.397437,-0.651223,10.263943,-7.500309,73.796280,16.384995
296000,0.105345,-0.696713,10.347740,-6.736950,77.796280,18.446062
300000,-0.035913,-0.689530,10.307038,-7.576645,79.842087,19.652170
304000,0.047884,-0.840365,10.060435,-7.912522,88.849716,22.949881
308000,-0.064643,-0.689530,9.725247,-9.790385,98.345901,25.514765
312000,-0.332794,-0.682347,9.452309,-11.668247,98.773384,26.934612
316000,-0.100556,-0.711078,9.466674,-12.904889,101.765747,28.644537
320000,-0.225055,-0.715866,9.600749,-13.133897,108.101624,30.003315
324000,-0.287304,-0.737414,9.583989,-13.240767,110.513840,31.209421
328000,-0.328006,-0.718261,9.488221,-13.729316,113.093994,32.415527
332000,-0.481235,-0.754174,9.538500,-13.530843,115.750481,33.820110
336000,-0.533907,-0.782904,9.526528,-13.149163,117.063461,34.965145
340000,-0.507571,-0.790087,9.648633,-12.706416,119.506210,36.079651
344000,-0.622492,-0.852336,9.758766,-11.607179,123.002388,37.667439
348000,-0.514753,-0.885855,9.943120,-10.782751,127.353539,39.209423
352000,-0.632069,-0.814029,9.904813,-10.187331,131.735199,40.675072
356000,-0.677559,-0.885855,9.933543,-10.981225,137.918411,42.201790
360000,-0.687136,-1.120486,10.395624,-11.042294,144.574905,44.201790
364000,-0.605733,-1.189918,10.891224,-10.935423,154.513840,46.766674
368000,-0.416591,-1.307234,11.338940,-9.500309,168.437500,49.484230
372000,-0.476446,-1.482011,11.635820,-7.164431,184.239029,51.606369
376000,-1.015141,-1.307234,10.948685,-4.950690,197.002380,55.239956
380000,-1.326388,-1.256956,10.409989,-6.263667,205.689407,57.820110
384000,-1.343147,-1.249773,9.923966,-7.347637,213.872604,60.919346
388000,-1.647211,-1.120486,9.742006,-9.423973,216.208496,62.583466
392000,-1.556231,-1.113304,9.624691,-11.042294,223.200851,65.881180
396000,-1.584962,-0.924162,9.435549,-12.614812,232.254288,68.125450
400000,-1.881842,-0.864307,9.071630,-13.943057,235.032913,69.545296
404000,-1.869871,-0.646434,8.832211,-14.202600,237.842072,71.194153
408000,-1.903390,-0.442927,8.441956,-13.805652,238.162689,71.530029
412000,-1.826776,-0.387861,8.427590,-13.881988,236.544373,70.843010
416000,-1.498770,-0.375890,9.378088,-10.950690,238.635971,70.339195
420000,-1.154005,-0.428562,10.225636,-5.836186,240.803909,67.621635
424000,-1.096544,-0.335188,9.945514,2.698165,244.941315,64.888809
428000,-1.484405,-0.071826,9.469068,8.087478,241.475662,60.140720
432000,-1.869871,0.007183,8.975863,9.690532,242.452759,58.751408
436000,-1.920150,-0.141258,8.657434,7.889005,251.552002,58.919346
440000,-2.485181,-0.119710,8.334216,2.606562,259.109253,57.988049
444000,-2.880225,-0.227449,7.958326,-1.027026,270.223785,59.713238
448000,-3.603274,-0.253785,7.546524,-5.256034,278.086365,61.591103
452000,-4.381389,-0.316035,7.352593,-8.752217,282.544373,64.339195
456000,-4.841076,-0.409408,6.933608,-11.515575,287.613098,67.972778
460000,-5.274426,-0.337582,6.394913,-14.752217,289.063477,71.804840
464000,-5.657499,-0.241814,6.181829,-18.767483,284.116913,73.774307
468000,-5.774815,-0.136469,5.987898,-21.332369,277.781036,76.644539
472000,-5.468357,-0.057461,6.423643,-21.225498,273.032928,78.049118
476000,-4.996699,0.023942,6.624756,-20.996490,269.002411,77.759041
480000,-4.465186,-0.002394,6.955156,-15.851453,278.376434,79.759041
484000,-4.838682,0.205901,6.785168,-13.988858,273.277222,77.667435
488000,-3.852271,0.184354,7.386112,-11.439240,279.078735,78.751404
492000,-4.180276,0.126893,7.474698,-9.729317,288.269562,78.919342
496000,-4.295198,0.229843,7.414843,-7.240767,286.681793,76.384995
500000,-4.101267,0.217872,6.888118,-4.004126,286.086365,73.407898
504000,-4.307169,0.517148,6.500257,-0.767484,283.781036,69.957512
508000,-4.410120,0.648829,5.896919,0.224882,283.078735,68.217056
512000,-4.343082,0.787692,5.221754,-1.439240,284.193237,64.904076
516000,-4.151546,0.967257,4.944026,-2.721682,293.216125,63.560570
520000,-4.714183,1.077391,4.268862,-4.767485,294.361176,61.636902
524000,-4.714183,1.194707,4.079720,-7.988858,298.086365,60.949879
528000,-4.869806,1.283292,4.098873,-12.675881,301.597809,59.331558
532000,-4.819528,1.130063,4.367024,-16.553743,308.010040,58.904079
536000,-4.522647,0.962469,5.300763,-18.614811,323.979492,59.209423
540000,-4.750096,0.727837,5.702989,-16.706415,339.597809,59.010948
544000,-5.319916,0.799663,5.176264,-13.943057,349.842102,59.881176
548000,-5.351041,0.912191,4.548983,-13.469775,357.032928,59.942245
552000,-5.473145,0.897826,4.089296,-13.820920,365.384064,59.224689
556000,-5.853823,1.199495,3.009511,-15.210233,371.368805,60.110184
560000,-6.179435,1.249773,2.130840,-21.347635,370.284851,59.209423
564000,-6.370971,1.362301,1.869871,-28.431606,366.834473,57.072018
568000,-6.521805,1.158794,1.867477,-31.652981,368.391724,57.499496
572000,-6.876147,1.273715,2.094927,-30.431606,366.406982,56.018581
576000,-7.359776,1.204283,1.240196,-28.004124,351.353546,53.484230
580000,-7.082048,1.192312,0.763750,-24.278934,342.330627,51.117817
584000,-7.194576,1.240196,0.744597,-21.103361,334.330627,47.804840
588000,-7.635109,1.144428,0.507571,-15.500308,324.574921,45.026215
592000,-7.802703,1.158794,0.146046,-9.790385,308.926056,41.255222
596000,-7.515399,1.218649,0.011971,-3.973591,294.544373,36.980415
600000,-7.711724,1.328782,0.083797,-1.698782,284.590179,34.171253
604000,-7.462727,1.120486,0.371101,1.186714,279.704681,31.667439
608000,-7.302315,1.094150,0.371101,4.331753,278.010040,28.843010
612000,-7.690176,0.991199,-0.124498,8.469157,272.681793,26.217054
616000,-7.584831,1.204283,-0.641646,10.499692,269.216125,23.560566
620000,-8.180987,1.474828,-1.944092,10.209616,265.582550,24.232323
624000,-7.955932,1.728614,-2.446874,5.278317,257.658875,22.583467
628000,-7.671022,1.927332,-2.954445,-1.958324,260.803925,21.911713
632000,-7.843405,1.958457,-3.428497,-8.767485,266.208496,21.438429
636000,-8.192958,2.149993,-4.345476,-15.164432,264.727600,20.690338
640000,-8.224083,2.284068,-4.788404,-21.866720,258.193237,19.239956
644000,-8.171411,2.149993,-4.568137,-26.431606,254.177948,17.423162
648000,-8.267179,1.929727,-4.000711,-27.576643,247.567261,14.934611
652000,-8.240842,1.661576,-3.368642,-26.370537,240.697037,12.552932
656000,-8.609550,1.314417,-3.045424,-22.141529,231.490936,9.865910
660000,-9.234436,1.168370,-3.016694,-17.973591,216.910782,7.148353
664000,-9.648633,0.948104,-3.059790,-14.110995,199.063446,4.781940
668000,-10.005369,0.888249,-3.098097,-10.004126,181.185593,3.682703
672000,-9.916783,0.854730,-2.975993,-5.179698,161.994751,1.438429
676000,-9.806650,0.763750,-2.755726,-0.233133,151.216125,1.591100
680000,-9.900024,0.653617,-2.851494,4.056943,143.200851,1.606368
684000,-9.868899,0.761356,-3.083732,7.843203,132.254288,2.033848
688000,-9.969456,0.974440,-3.581726,9.904272,118.345901,1.362093
692000,-9.318233,1.137246,-3.490746,11.247784,114.086357,1.087284
696000,-9.114726,1.216254,-4.074931,10.377554,99.185593,-1.615006
700000,-8.504205,1.391031,-3.737349,11.385188,98.880249,-1.905083
704000,-8.705317,1.407791,-4.031836,11.324119,94.147430,-4.454701
708000,-8.724471,1.412579,-4.276044,13.079844,88.116890,-6.073021
712000,-8.750807,1.527501,-4.886566,15.095111,85.032921,-6.683709
716000,-9.028535,1.575385,-5.556942,13.553126,71.292465,-9.721877
720000,-9.232041,1.707066,-5.607220,12.820302,61.277195,-11.401266
724000,-9.660604,1.553837,-5.726931,11.110378,49.658875,-11.508137
728000,-9.150639,1.604115,-5.372589,8.545493,48.941319,-9.676076
732000,-9.320627,1.663970,-5.556942,4.316485,49.368797,-8.775312
736000,-9.320627,1.644817,-5.786786,0.667630,46.284828,-7.202793
740000,-9.387665,1.862689,-5.822699,-7.057561,46.269562,-5.920350
744000,-9.229648,1.877054,-5.935226,-14.553744,45.903149,-5.004319
748000,-8.746018,1.968034,-5.760449,-21.423971,47.170326,-4.561571
752000,-8.489840,1.810017,-5.425261,-27.072826,50.116890,-4.210426
756000,-8.489840,1.805228,-5.286397,-31.133896,52.330631,-4.210426
760000,-8.655039,1.628057,-5.195418,-34.004124,52.468037,-4.607373
764000,-9.038112,1.587356,-5.300763,-36.172062,47.353531,-5.462335
768000,-9.248801,1.537078,-5.109226,-38.630077,35.582539,-7.477602
772000,-8.791509,1.024718,-4.161122,-34.859085,36.147423,-6.286762
776000,-9.179369,0.960075,-3.500323,-33.301834,28.895515,-8.027221
780000,-9.148245,0.651223,-2.815581,-27.607178,22.971851,-8.118823
784000,-9.380483,0.447716,-2.291251,-21.515575,19.093988,-8.531037
788000,-9.346964,0.397437,-2.183512,-14.110995,13.490935,-7.782945
792000,-9.622296,0.450110,-2.157176,-7.286569,7.200860,-8.622641
796000,-9.921572,0.397437,-2.363077,-0.553744,3.414600,-6.882182
800000,-10.263943,0.318429,-2.530671,5.400455,-9.608301,-5.859281
804000,-9.732430,0.316035,-2.348712,11.446257,-16.234255,-5.126457
808000,-9.746795,0.392649,-2.190695,18.392822,-18.081583,-3.462335
812000,-9.672575,0.588974,-2.545036,22.896639,-24.142653,-3.034854
816000,-9.363723,0.727837,-2.116474,28.041677,-27.226622,-2.546304
820000,-8.971074,0.667982,-2.686294,36.514961,-23.883110,-1.294396
824000,-9.069236,1.036689,-3.493140,36.347019,-27.379293,-2.027220
828000,-8.834604,1.197101,-3.794810,37.263050,-24.371660,-0.866915
832000,-8.877700,1.316811,-4.031836,32.606560,-24.524332,-0.714243
836000,-8.633492,1.647211,-3.914520,29.690533,-22.478531,-0.546304
840000,-8.434772,1.805228,-3.825934,25.125647,-26.356392,-2.744777
844000,-7.630321,1.678335,-3.881001,22.759233,-15.135018,-0.637907
848000,-7.905654,1.817199,-3.744531,18.209616,-1.241889,-0.607373
852000,-8.063671,1.771709,-3.971981,12.652363,-0.264789,-1.492869
856000,-7.659051,1.659182,-3.837905,9.736333,9.048187,-2.118823
860000,-8.197746,1.608904,-4.010288,6.728699,15.322997,-2.576838
864000,-8.542512,1.491588,-4.074931,4.285951,17.093988,-3.034854
868000,-8.731653,1.309628,-3.969586,1.919539,17.872616,-2.958518
872000,-8.762778,1.165976,-3.406949,0.667630,19.093988,-2.897449
876000,-8.786720,1.017536,-3.162740,0.728699,20.666508,-3.111190
880000,-9.045294,1.039083,-3.205836,0.316485,19.017653,-3.569205
884000,-9.093178,0.821211,-3.373430,1.980608,20.971851,-2.973785
888000,-9.478644,0.806846,-3.799598,2.514959,18.132156,-2.179892
892000,-9.459491,0.859518,-3.883395,2.820302,16.391699,-1.218060
896000,-9.603143,0.833182,-3.828329,2.850837,13.032920,-0.714243
900000,-9.478644,0.703895,-3.584120,4.118012,10.193226,-0.363098
904000,-9.485827,0.766145,-3.711013,5.247783,6.193226,0.079650
908000,-9.507375,0.792481,-3.845088,6.072211,-0.829675,-0.485235
912000,-9.497798,0.742203,-3.801992,7.293585,-7.913644,-0.882182
916000,-9.323022,0.823605,-3.821146,8.347020,-13.409828,-1.263861
920000,-9.277532,0.842759,-3.742137,9.858470,-18.127384,-2.027220
924000,-9.390059,0.749385,-3.734955,11.461524,-20.783875,-1.935617
928000,-9.526528,0.804452,-3.931279,12.148546,-24.982347,-1.630274
932000,-9.536105,0.885855,-3.890578,13.034042,-30.600668,-1.615006
936000,-9.442732,0.828394,-3.895366,13.247783,-34.066315,-1.202793
940000,-9.232041,0.869095,-3.620033,13.293585,-35.104485,-0.531037
944000,-8.722076,0.940921,-3.318364,12.743966,-32.295322,0.369726
948000,-8.125920,1.070208,-3.007117,12.011142,-24.295324,0.888810
952000,-7.929596,1.343147,-3.335123,8.102745,-13.715171,1.224688
956000,-7.896077,1.477222,-3.881001,3.950073,-3.348759,1.377360
960000,-8.032547,1.537078,-4.393360,-0.721682,6.742845,1.621635
964000,-8.444349,1.637634,-4.797980,-6.889622,8.788646,0.720871
968000,-8.497022,1.539472,-4.750096,-11.042294,13.124523,0.904078
972000,-8.561666,1.352724,-4.362236,-13.775117,16.758112,1.194154
976000,-8.362947,1.192312,-3.823540,-14.859088,23.414600,2.171253
980000,-8.398860,1.170765,-3.579332,-15.393439,27.384066,1.835375
984000,-8.520964,1.074997,-3.421314,-14.904889,29.582539,1.301024
988000,-8.611943,0.955287,-3.268085,-13.271300,29.613073,0.232322
992000,-8.916007,0.809240,-3.122039,-10.477407,26.605440,-1.111190
996000,-9.330204,0.672771,-3.090914,-6.401072,19.445133,-2.592106
1000000,-9.751583,0.548272,-3.071761,-2.095728,11.613073,-3.050121
1004000,-10.065224,0.507571,-3.272874,2.530226,3.399333,-2.851648
1008000,-10.297462,0.577003,-3.500323,5.736333,-5.669369,-2.179892
1012000,-10.218452,0.603339,-3.830723,7.553127,-14.157920,-1.294396
1016000,-10.002975,0.708684,-3.936068,8.560760,-19.531965,-0.454701
1020000,-9.672575,0.861913,-3.885789,9.171448,-22.341125,-0.256228
1024000,-9.476251,0.835576,-3.979163,9.293585,-23.913645,0.186520
1028000,-9.291897,0.849942,-4.072537,9.201982,-25.669371,0.446062
1032000,-9.162610,0.893037,-4.113238,8.911905,-27.150286,0.323925
1036000,-9.088389,1.019930,-4.010288,7.476791,-28.386927,0.354459
1040000,-8.801085,1.163582,-3.890578,5.736333,-27.012880,0.629268
1044000,-8.602366,1.197101,-3.737349,3.827936,-23.257156,0.629268
1048000,-8.561666,1.211466,-3.806781,1.201982,-19.348759,1.010948
1052000,-8.580819,1.300052,-3.845088,-1.607178,-16.325857,0.552933
1056000,-8.633492,1.278504,-4.084508,-4.660614,-13.730438,0.186520
1060000,-8.757990,1.278504,-3.936068,-7.591911,-9.944179,0.400261
1064000,-8.762778,1.201889,-3.766079,-9.881988,-6.371659,0.751406
1068000,-8.872911,1.103727,-3.684676,-11.698782,-3.974713,1.102551
1072000,-8.738836,1.156399,-3.598485,-13.179698,-1.867843,1.301024
1076000,-8.401254,1.115698,-3.189077,-14.431607,2.437501,1.178887
1080000,-8.212111,1.048660,-2.853889,-14.706416,8.834447,0.614001
1084000,-8.255207,1.041478,-2.686294,-14.370538,13.414599,-0.042487
1088000,-8.339005,0.988805,-2.715025,-13.607179,15.979485,-1.355464
1092000,-8.614338,0.919373,-2.806004,-12.660613,16.193226,-2.500503
1096000,-8.997410,0.852336,-2.985569,-11.240767,14.132157,-3.492869
1100000,-9.373300,0.763750,-3.074155,-9.454507,10.590172,-3.889816
1104000,-9.677363,0.653617,-3.277662,-7.423973,5.857348,-3.752411
1108000,-9.763555,0.691924,-3.339911,-5.637713,0.422234,-3.660808
1112000,-9.483433,0.615310,-2.959233,-1.775118,0.971852,-2.179892
1116000,-9.131485,0.229843,-3.052607,4.835569,5.032921,1.484230
1120000,-10.156203,0.756568,-3.529053,-2.049927,-12.371660,-3.782945
1124000,-9.217676,0.610521,-3.552995,1.156180,-11.883110,-1.141724
1128000,-9.507375,0.706290,-3.354277,1.201982,-8.906011,-0.729510
1132000,-9.344569,0.816423,-3.715801,1.079844,-12.844942,-0.851648
1136000,-9.402030,0.814029,-3.670311,1.446256,-14.112118,-0.347831
1140000,-9.437943,0.830788,-3.720589,2.194348,-16.280056,0.354459
1144000,-9.052477,0.859518,-3.591303,2.805035,-16.020514,0.614001
1148000,-8.947132,0.876278,-3.481169,2.163814,-14.554866,0.827742
1152000,-8.753201,0.964863,-3.423708,1.614195,-12.173186,0.354459
1156000,-8.784326,0.931344,-3.327940,1.339386,-10.875477,0.079650
1160000,-8.968679,0.905008,-3.536236,0.530226,-10.096850,-0.210426
1164000,-9.083601,0.984017,-3.672705,0.148546,-10.142653,-0.225693
1168000,-9.181764,1.024718,-3.696647,-0.401072,-11.104485,0.308658
1172000,-9.184157,0.979228,-3.881001,-1.286568,-11.028149,0.323925
1176000,-9.150639,1.053449,-3.821146,-2.798018,-10.417461,0.980413
1180000,-9.085996,1.077391,-3.813963,-4.736950,-10.234255,1.133085
1184000,-8.841787,1.007959,-3.605668,-5.805653,-8.677003,1.056749
1188000,-8.743625,0.998382,-3.521871,-7.301835,-5.867843,0.736139
1192000,-8.793902,0.967257,-3.433285,-8.324736,-3.577766,0.400261
1196000,-8.944737,0.909797,-3.438074,-8.889622,-3.287690,-0.225693
1200000,-9.100361,0.823605,-3.260903,-8.416339,-4.906011,-0.836380
1204000,-8.980651,0.670376,-2.798822,-6.874354,-5.654102,-1.431800
1208000,-9.023746,0.627281,-2.573767,-4.217866,-6.096850,-1.721877
1212000,-9.119514,0.691924,-2.806004,-1.851454,-7.791507,-2.225693
1216000,-9.155427,0.670376,-2.813187,-0.049927,-10.997614,-2.439434
1220000,-9.138668,0.708684,-2.726996,2.209615,-13.028149,-2.851648
1224000,-9.143456,0.711078,-2.667141,4.285951,-13.455629,-3.233327
1228000,-9.200917,0.725443,-2.681506,6.209615,-14.295324,-3.569205
1232000,-9.277532,0.735020,-2.779668,7.705798,-15.699904,-3.385999
1236000,-9.373300,0.768539,-2.971204,8.682898,-17.608301,-3.172258
1240000,-9.327810,0.814029,-2.942474,9.537860,-19.272423,-2.729510
1244000,-9.172187,0.814029,-2.956839,10.087478,-19.806774,-2.286762
1248000,-8.971074,0.928950,-2.956839,10.011142,-19.486164,-2.225693
1252000,-9.002198,0.986411,-3.047819,9.400455,-18.997614,-1.966151
1256000,-9.021352,1.082179,-3.294421,8.469157,-18.509064,-1.721877
1260000,-8.985439,1.036689,-3.208230,7.324119,-17.135019,-1.523403
1264000,-9.021352,1.015141,-3.162740,6.270684,-15.440362,-0.836380
1268000,-9.074024,1.055843,-3.196259,5.476791,-14.157920,-0.515770
1272000,-9.133880,1.072602,-3.107674,4.331753,-13.531965,0.033849
1276000,-8.975863,1.139640,-3.136404,3.003508,-12.280057,0.614001
1280000,-8.664616,1.213860,-3.119645,1.247783,-8.493797,0.827742
1284000,-8.580819,1.242591,-3.289633,-1.347636,-3.669369,1.194154
1288000,-8.664616,1.280898,-3.421314,-4.141530,0.544371,0.888810
1292000,-8.836999,1.300052,-3.615245,-6.309469,2.727577,0.873543
1296000,-8.892065,1.182736,-3.442862,-8.248401,3.750478,0.415528
1300000,-9.002198,1.065420,-3.327940,-9.042294,4.559639,0.598734
1304000,-9.081207,1.007959,-3.256114,-9.240767,4.697043,0.644536
1308000,-9.224859,0.955287,-3.186682,-8.767485,3.887883,0.598734
1312000,-9.232041,0.797269,-3.126827,-8.065194,2.254295,0.644536
1316000,-9.315839,0.814029,-2.940080,-7.240767,0.849715,0.873543
1320000,-9.105149,0.701501,-2.707842,-5.515575,1.368798,1.133085
1324000,-9.174581,0.768539,-2.643199,-4.172065,0.971852,1.239955
1328000,-9.102755,0.735020,-2.655170,-3.088094,-0.447995,0.934612
1332000,-9.105149,0.701501,-2.683900,-1.347636,-2.005247,0.919345
1336000,-9.035717,0.687136,-2.705448,0.682898,-3.287690,0.736139
1340000,-8.963891,0.766145,-2.760514,2.209615,-4.539598,0.323925
1344000,-8.923190,0.809240,-2.674323,3.263050,-4.570133,0.171253
1348000,-8.872911,0.775721,-2.707842,4.514959,-3.211354,0.110184
1352000,-8.932767,0.828394,-2.899378,4.896638,-3.180820,0.094917
1356000,-9.074024,0.881066,-3.100491,5.201982,-3.501430,0.125452
1360000,-9.174581,0.885855,-3.248932,5.507325,-3.654102,-0.042487
1364000,-9.150639,0.883460,-3.117251,5.675264,-4.264789,-0.011953
1368000,-9.052477,0.869095,-2.992752,6.499691,-4.554865,0.201787
1372000,-9.093178,0.811634,-2.863465,7.614195,-5.043415,0.018581
1376000,-9.112331,0.847547,-2.868254,8.713432,-5.119751,-0.164625
1380000,-9.167398,0.895431,-3.071761,9.293585,-5.058682,-0.118823
1384000,-9.184157,1.029507,-3.184288,8.972974,-5.852575,-0.469968
1388000,-9.244013,1.089362,-3.421314,8.606562,-6.753339,-0.439434
1392000,-9.229648,1.101333,-3.447650,7.705798,-7.226621,-0.118823
1396000,-9.088389,1.144428,-3.433285,6.728699,-7.348759,0.217055
1400000,-9.045294,1.132457,-3.490746,5.385188,-6.631201,0.323925
1404000,-8.978256,1.242591,-3.586514,2.713432,-5.043415,0.552933
1408000,-8.975863,1.247379,-3.699042,0.072211,-3.730438,0.690337
1412000,-8.944737,1.309628,-3.763685,-2.309469,-2.325858,0.598734
1416000,-8.951921,1.300052,-3.859453,-4.874354,-1.180820,0.461329
1420000,-8.939949,1.209072,-3.682282,-7.347637,-0.417461,0.400261
1424000,-8.930372,1.108515,-3.368642,-8.736950,1.216127,0.323925
1428000,-8.968679,1.072602,-3.442862,-9.530843,1.781012,-0.073022
1432000,-9.109938,1.015141,-3.239355,-10.080462,0.956585,-0.286762
1436000,-9.107543,0.988805,-3.169923,-10.141530,-0.081583,-0.576838
1440000,-9.045294,0.833182,-2.705448,-9.271301,-0.295324,-0.714243
1444000,-8.992621,0.715866,-2.372654,-7.057561,0.208493,-1.218060
1448000,-8.971074,0.713472,-2.231396,-4.782751,0.529104,-1.141724
1452000,-9.078813,0.703895,-2.217031,-2.675881,-0.570133,-1.905083
1456000,-9.179369,0.653617,-2.161964,-0.645346,-2.218988,-2.332564
1460000,-9.229648,0.639252,-2.200271,1.827936,-3.394560,-2.576838
1464000,-9.191340,0.622492,-2.190695,4.179081,-4.600667,-2.714243
1468000,-9.394848,0.706290,-2.353500,5.812669,-5.760972,-2.668442
1472000,-9.344569,0.713472,-2.499547,6.896638,-6.310591,-2.179892
1476000,-9.442732,0.720655,-2.573767,7.644730,-7.028148,-1.981419
1480000,-9.466674,0.866701,-2.827552,7.934806,-7.012881,-1.279129
1484000,-9.270349,0.845153,-2.837129,7.889005,-6.325858,-0.668442
1488000,-9.076419,0.876278,-2.636016,7.705798,-4.463263,-0.363098
1492000,-9.011775,0.869095,-2.657564,7.705798,-1.547232,0.094917
1496000,-8.894460,0.919373,-2.820370,7.156180,2.376432,0.415528
1500000,-9.009381,1.015141,-3.033453,6.179081,5.048188,0.644536
1504000,-9.114726,1.046266,-3.248932,4.774501,6.101623,0.766673
1508000,-9.203311,1.019930,-3.375824,3.308852,7.002387,1.117818
1512000,-9.143456,1.024718,-3.519476,1.583661,8.574905,1.499497
1516000,-9.287108,1.019930,-3.617639,-0.034660,8.468035,1.850642
1520000,-9.265560,1.024718,-3.586514,-1.729316,7.658875,1.835375
1524000,-9.284714,1.089362,-3.677494,-2.798018,6.269562,1.896444
1528000,-9.311050,0.986411,-3.711013,-4.004126,4.819180,1.942245
1532000,-9.174581,0.871489,-3.399766,-4.630079,2.345898,1.667436
1536000,-9.100361,0.861913,-3.134010,-4.248401,0.926050,1.392627
1540000,-8.947132,0.864307,-2.947262,-3.454507,-0.173186,0.781940
1544000,-8.978256,0.768539,-2.918532,-2.553744,-1.440362,0.125452
1548000,-9.136273,0.720655,-2.959233,-1.943056,-3.593034,-0.347831
1552000,-9.186552,0.792481,-2.987964,-1.256034,-5.989980,-1.080655
1556000,-9.232041,0.787692,-2.973598,-0.630080,-8.600668,-1.279129
1560000,-9.263166,0.761356,-2.944868,0.224882,-9.760973,-1.599739
1564000,-9.102755,0.806846,-2.904167,0.957707,-9.547233,-1.248594
1568000,-9.050082,0.842759,-2.885013,0.927172,-8.386927,-1.187526
1572000,-9.045294,0.818817,-2.851494,0.728699,-7.409827,-0.912716
1576000,-9.023746,0.871489,-2.999935,0.347020,-5.822041,-0.515770
1580000,-9.052477,0.919373,-3.095703,0.423356,-4.432728,-0.576838
1584000,-9.078813,0.967257,-3.141193,0.102745,-4.432728,-0.240961
1588000,-8.990228,0.845153,-2.892196,0.285951,-3.699904,-0.515770
1592000,-8.916007,0.883460,-2.559402,1.476791,-2.142652,-0.576838
1596000,-9.040505,0.926556,-2.557007,2.881371,-1.302957,-0.622640
1600000,-9.074024,0.859518,-2.806004,3.125646,-1.165553,-0.424167
1604000,-9.085996,0.950498,-2.808398,3.217249,-1.257156,-0.424167
1608000,-8.961497,0.940921,-2.719813,2.392821,0.758111,-0.118823
1612000,-8.971074,0.988805,-2.626439,2.743967,4.086356,0.323925
1616000,-9.069236,0.981623,-2.762909,2.163814,6.193226,0.323925
1620000,-9.148245,0.945710,-2.913743,1.659997,7.399333,0.629268
1624000,-9.121908,1.041478,-3.145981,1.354653,7.689410,0.766673
1628000,-9.198523,1.019930,-3.251326,1.003508,6.422234,0.491864
1632000,-9.260772,1.015141,-3.143587,0.667630,4.849715,0.552933
1636000,-9.258378,0.974440,-3.071761,0.545493,3.903150,0.736139
1640000,-9.203311,0.962469,-3.095703,0.331753,3.231394,0.873543
1644000,-9.181764,0.881066,-2.947262,-0.004125,3.475669,1.087284
1648000,-9.054871,0.895431,-3.026271,-0.110996,3.765745,1.255223
1652000,-8.999804,0.926556,-2.873042,0.331753,3.857348,0.873543
1656000,-8.990228,0.945710,-2.703054,1.354653,3.124524,0.659803
1660000,-9.006987,0.945710,-2.810793,2.362287,2.300096,-0.088289
1664000,-9.021352,0.890643,-2.738967,3.476791,0.987119,-0.439434
1668000,-9.076419,0.854730,-2.813187,4.377554,-0.005247,-0.637907
1672000,-9.124303,0.828394,-2.784456,5.263051,-0.799140,-0.744777
1676000,-9.117120,0.900220,-2.913743,6.087478,-1.531965,-0.790579
1680000,-9.179369,0.861913,-3.110068,5.904272,-2.096850,-0.714243
1684000,-9.234436,0.967257,-3.371036,5.492058,-2.844942,-0.469968
1688000,-9.167398,1.034295,-3.402161,4.331753,-3.425095,-0.439434
1692000,-8.983045,1.000776,-3.280056,3.537859,-2.325858,0.003314
1696000,-8.916007,1.098939,-3.210624,3.064577,0.025287,-0.011953
1700000,-8.880095,1.103727,-3.256114,2.484425,1.735211,-0.164625
1704000,-9.014170,1.074997,-3.447650,1.751600,2.544371,-0.149358
1708000,-9.150639,1.122881,-3.555390,1.171447,1.658875,-0.515770
1712000,-9.186552,1.151611,-3.622427,0.347020,0.116890,-0.210426
1716000,-9.200917,1.125275,-3.655946,-0.599545,-1.302957,-0.179892
1720000,-9.097966,1.106121,-3.545813,-1.271301,-1.837308,-0.103556
1724000,-9.069236,1.108515,-3.502717,-2.233133,-2.096850,-0.118823
1728000,-8.968679,1.094150,-3.392584,-2.889621,-2.249522,-0.317297
1732000,-8.920795,1.118092,-3.280056,-4.156797,-1.684637,-0.286762
1736000,-9.011775,1.072602,-3.390190,-4.767485,-1.715171,-0.317297
1740000,-9.002198,1.144428,-3.351882,-5.652981,-2.631201,-0.531037
1744000,-8.999804,1.024718,-3.205836,-5.759851,-3.409827,-0.714243
1748000,-8.942344,0.960075,-3.035848,-5.912522,-3.669369,-1.233327
1752000,-8.892065,0.878672,-2.880225,-7.790385,-0.906011,-1.447067
1756000,-9.119514,0.768539,-2.509123,-5.271301,-1.531965,-1.905083
1760000,-9.047688,0.653617,-2.360683,-3.042293,-3.608301,-1.645541
1764000,-9.179369,0.672771,-2.432509,-0.553744,-4.722805,-2.164625
1768000,-9.172187,0.732626,-2.695871,0.224882,-3.837308,-1.950884
1772000,-9.404425,0.723049,-2.875436,0.698165,-5.012881,-2.210426
1776000,-9.390059,0.720655,-2.841918,1.461524,-7.135018,-2.149358
1780000,-9.287108,0.727837,-2.717419,2.209615,-7.104484,-1.691342
1784000,-9.232041,0.763750,-2.691083,2.545493,-6.035781,-0.989052
1788000,-9.229648,0.744597,-2.858677,2.484425,-5.333491,-0.683709
1792000,-9.052477,0.773327,-2.913743,2.881371,-3.669369,-0.653174
1796000,-9.100361,0.792481,-2.920926,2.972974,-2.157919,-0.103556
1800000,-9.090784,0.828394,-2.937685,3.324119,-1.486163,-0.271495
1804000,-9.107543,0.782904,-2.829947,3.736333,-1.241889,-0.118823
1808000,-8.956709,0.912191,-2.779668,4.408089,0.391699,0.049116
1812000,-8.851364,0.893037,-2.899378,4.453890,1.643608,-0.302029
1816000,-8.963891,1.017536,-2.894590,4.285951,2.025287,-0.332564
1820000,-9.004593,1.015141,-3.066972,4.072211,2.376432,-0.256228
1824000,-9.078813,1.003170,-3.059790,3.721066,2.880249,-0.271495
1828000,-9.124303,1.074997,-3.270479,3.034043,2.147424,0.217055
1832000,-8.997410,1.055843,-3.361459,1.782134,2.529104,0.598734
1836000,-8.846576,1.127669,-3.327940,0.194348,4.498569,0.705604
1840000,-8.820239,1.228225,-3.380613,-1.622446,6.376432,1.041482
1844000,-8.839393,1.252167,-3.591303,-3.439240,7.582539,0.812474
1848000,-8.865729,1.192312,-3.596091,-4.752217,7.765746,0.659803
1852000,-8.875306,1.161188,-3.483563,-6.095729,7.048188,0.247589
1856000,-8.939949,1.031901,-3.251326,-6.798018,5.567272,-0.179892
1860000,-8.968679,0.952892,-3.016694,-6.767485,4.864982,-0.088289
1864000,-8.971074,0.897826,-2.980781,-5.973591,3.658875,-0.317297
1868000,-8.911219,0.876278,-2.782062,-5.652981,1.842081,-0.927984
1872000,-8.916007,0.806846,-2.770091,-4.752217,0.025287,-1.355464
1876000,-9.045294,0.821211,-2.813187,-3.988858,-1.241889,-1.615006
1880000,-9.100361,0.814029,-2.825158,-3.042293,-2.661736,-2.240961
1884000,-9.129091,0.799663,-2.882619,-2.553744,-3.638835,-2.225693
1888000,-9.131485,0.826000,-2.844312,-2.095728,-4.600667,-2.179892
1892000,-9.150639,0.737414,-2.920926,-1.759850,-5.348759,-1.905083
1896000,-8.930372,0.799663,-2.592921,-1.210232,-4.829675,-2.027220
1900000,-8.640674,0.694318,-2.240973,-0.004125,-1.913644,-1.721877
1904000,-8.504205,0.715866,-2.020706,1.858470,3.521470,-2.225693
1908000,-8.829816,0.732626,-2.185906,3.263050,6.269562,-2.515770
1912000,-9.018958,0.723049,-2.525883,3.873737,6.010020,-3.111190
1916000,-9.275137,0.797269,-2.868254,4.530226,4.483303,-3.080655
1920000,-9.366117,0.768539,-2.782062,5.217249,3.032921,-3.050121
1924000,-9.555259,0.672771,-2.846706,5.980608,1.384066,-2.531037
1928000,-9.392453,0.754174,-2.913743,6.392821,1.002386,-2.164625
1932000,-9.241618,0.768539,-2.865860,6.911905,2.422234,-1.752411
1936000,-9.150639,0.847547,-2.937685,7.140913,2.819180,-1.492869
1940000,-9.193734,0.837971,-3.205836,7.079844,3.277195,-1.920350
1944000,-9.236830,0.859518,-3.315969,6.759233,3.597806,-1.630274
1948000,-9.452309,0.869095,-3.488352,6.240149,3.093989,-1.355464
1952000,-9.550470,0.876278,-3.648763,4.988241,1.216127,-1.385999
1956000,-9.674969,0.902614,-3.727772,3.644730,-1.379293,-0.790579
1960000,-9.615114,0.933739,-3.782839,2.163814,-2.722805,-0.561571
1964000,-9.493010,0.900220,-3.775656,0.774501,-4.188453,0.232322
1968000,-9.440337,0.957681,-3.763685,-0.843820,-5.486163,0.446062
1972000,-9.255983,0.976834,-3.552995,-1.943056,-6.112117,0.430795
1976000,-9.133880,0.926556,-3.488352,-3.240766,-5.837308,0.323925
1980000,-9.191340,0.943315,-3.239355,-3.683514,-5.531965,0.384994
1984000,-9.047688,0.916979,-2.990358,-3.851454,-5.425095,0.476597
1988000,-8.868123,0.964863,-2.877831,-3.927789,-3.394560,0.140719
1992000,-8.959103,0.940921,-2.851494,-3.759850,-1.760972,-0.317297
1996000,-9.083601,0.888249,-2.861071,-3.683514,-1.822041,-0.515770
