time_us,ax,ay,az,gx,gy,gz
0,0.502782,-0.859518,8.556877,2.866104,2.712310,1.270490
4000,0.397437,-0.900220,8.559271,3.415722,3.597806,0.919345
8000,0.368707,-0.871489,8.520964,3.354653,4.239028,0.949879
12000,0.272939,-0.876278,8.408437,3.263050,4.773379,1.178887
16000,0.311246,-0.878672,8.465898,2.637096,4.345898,1.209421
20000,0.337582,-0.871489,8.544906,2.133279,4.132157,1.438429
24000,0.337582,-0.852336,8.731653,2.179081,4.193226,1.636902
28000,0.478840,-0.873884,8.918402,2.331753,4.422234,1.255223
32000,0.617704,-0.806846,9.045294,2.805035,5.063455,0.888810
36000,0.617704,-0.794875,9.066842,3.461524,5.338264,0.491864
40000,0.608127,-0.797269,8.968679,3.919539,5.628341,-0.073022
44000,0.567426,-0.883460,9.016563,4.560760,5.475669,-0.760045
48000,0.569820,-0.912191,8.987833,5.644730,5.246661,-1.187526
52000,0.476446,-0.826000,8.884883,6.469157,5.185593,-1.156991
56000,0.471658,-0.792481,8.815451,6.499691,5.368799,-1.584472
60000,0.402226,-0.814029,8.655039,6.056943,5.719944,-1.584472
64000,0.344765,-0.826000,8.528147,5.659997,6.513837,-1.477602
68000,0.404620,-0.778116,8.336611,4.743967,7.322997,-1.095922
72000,0.311246,-0.806846,8.240842,3.751600,8.498569,-0.866915
76000,0.215478,-0.804452,8.157045,2.423356,9.368798,-0.179892
80000,0.277727,-0.837971,8.066066,0.545493,10.101623,-0.240961
84000,0.263362,-0.782904,8.159439,-0.416339,11.216126,0.293391
88000,0.234632,-0.828394,8.288726,-1.561377,12.376431,1.010948
92000,0.332794,-0.828394,8.511387,-2.828552,13.429867,1.133085
96000,0.450110,-0.933739,8.738836,-3.317102,14.498569,1.163620
100000,0.438139,-0.907402,8.992621,-2.828552,14.300096,0.873543
104000,0.588974,-1.031901,9.153033,-1.714049,13.933683,0.415528
108000,0.670376,-1.091756,9.552865,-0.202598,15.903149,-0.057755
112000,0.653617,-1.108515,9.761160,1.034043,18.666508,-0.027220
116000,0.593762,-1.139640,9.773131,2.652363,20.529104,-0.118823
120000,0.430956,-1.204283,9.832987,3.507325,21.536737,-0.210426
124000,0.265756,-1.053449,9.421184,1.659997,16.330629,-1.584472
128000,0.624887,-1.182736,9.504981,4.102745,26.177958,0.751406
132000,0.318429,-1.127669,9.504981,4.255417,29.307730,1.316291
136000,0.071826,-1.046266,9.071630,3.201982,27.139790,1.820108
140000,0.452504,-0.998382,9.188946,2.789768,30.208492,2.583467
144000,0.385466,-0.967257,9.078813,2.118012,31.903149,3.026215
148000,0.478840,-0.962469,9.023746,2.087478,34.590172,3.820108
152000,0.656011,-0.859518,8.846576,0.942440,36.895515,4.400261
156000,0.667982,-0.785298,8.803479,-0.126262,38.605438,4.537665
160000,0.727837,-0.667982,8.757990,-1.164430,41.200859,4.659803
164000,0.735020,-0.627281,8.731653,-2.569010,44.483303,4.552933
168000,0.675165,-0.622492,8.690952,-3.546110,47.506203,4.949879
172000,0.718261,-0.703895,8.662222,-5.118629,51.368797,4.965147
176000,0.596156,-0.634463,8.664616,-7.164431,56.468037,5.148353
180000,0.598550,-0.663194,8.664616,-8.981225,62.269562,5.392627
184000,0.433351,-0.737414,8.638280,-10.935423,68.025291,6.003314
188000,0.272939,-0.598550,8.377312,-13.317103,74.269562,6.858276
192000,-0.028730,-0.749385,8.195353,-15.332370,77.399338,7.530032
196000,-0.248997,-0.814029,8.219295,-17.561377,79.796280,8.262856
200000,-0.368707,-0.878672,8.317456,-19.714048,82.635979,9.759039
204000,-0.478840,-1.043872,8.844181,-20.782751,88.040558,11.835375
208000,-0.505177,-1.115698,9.078813,-22.172064,94.590179,14.110184
212000,-0.521936,-1.283292,9.354146,-23.256033,100.223763,15.789573
216000,-0.421380,-1.292869,9.334992,-23.714048,106.361168,17.453697
220000,-0.407014,-1.297657,9.478644,-23.805651,112.177963,18.873545
224000,-0.280122,-1.288081,9.610326,-23.683514,118.544373,19.652170
228000,-0.107739,-1.312023,9.734824,-23.439240,123.781013,20.278124
232000,-0.201113,-1.369483,9.888053,-22.752216,127.857353,20.384995
236000,-0.165200,-1.484405,9.933543,-21.668247,131.842072,20.140718
240000,-0.220267,-1.364695,9.923966,-21.561377,137.231384,20.217054
244000,-0.392649,-1.398214,9.751583,-20.385803,139.124527,20.018581
248000,-0.521936,-1.441309,9.655815,-19.423971,141.109253,19.896444
252000,-0.598550,-1.422156,9.425972,-19.775116,142.483292,20.201788
256000,-0.524330,-1.395820,9.454702,-18.920155,147.918411,20.522398
260000,-0.739808,-1.323994,9.267955,-19.469774,150.910782,20.598734
264000,-0.960075,-1.242591,8.990228,-20.370537,155.903152,22.079651
268000,-1.027112,-1.290475,8.796297,-21.881987,162.177948,22.843010
272000,-1.122881,-1.302446,8.631097,-22.859087,166.895508,23.988047
276000,-1.180341,-1.199495,8.561666,-24.278934,170.010010,24.965147
280000,-1.357512,-1.268927,8.303091,-24.859087,169.811539,24.919346
284000,-1.455675,-1.098939,8.164227,-25.515575,168.345886,24.491865
288000,-1.496376,-1.158794,7.896077,-26.172064,168.300095,24.094917
292000,-1.333570,-1.254562,7.917625,-28.187332,167.185593,23.652170
296000,-2.126051,-1.304840,8.087613,-29.225498,166.666504,21.957514
300000,-2.061408,-1.470040,8.274361,-28.431606,164.498566,21.774307
304000,-2.274492,-1.599327,8.583213,-27.423971,162.574905,21.988047
308000,-2.516306,-1.625663,8.540117,-28.049927,161.338257,22.430796
312000,-2.559402,-1.702277,8.908825,-28.004124,165.185593,23.713238
316000,-2.798822,-1.802834,9.155427,-28.920155,170.422226,25.759041
320000,-2.722207,-1.769315,9.313444,-30.172062,178.773376,28.644537
324000,-2.655170,-1.810017,9.203311,-31.225498,190.529099,31.804840
328000,-2.530671,-1.757344,9.229648,-32.217865,204.162689,34.690338
332000,-2.535460,-1.776498,9.069236,-32.859085,215.246658,36.888809
336000,-2.640805,-1.721431,8.913613,-33.790382,223.216125,38.003315
340000,-2.722207,-1.584962,8.705317,-34.767483,228.971848,38.507130
344000,-3.086126,-1.522712,8.418014,-35.714046,228.742844,38.430798
348000,-2.961627,-1.520318,8.655039,-34.859085,235.948944,40.155987
352000,-2.810793,-1.546654,8.456321,-34.736950,241.658875,40.323925
356000,-3.023877,-1.484405,8.346188,-34.446873,247.872604,40.262856
360000,-3.232172,-1.527501,8.154651,-33.072826,251.781006,40.308659
364000,-3.567361,-1.436521,7.936779,-33.637711,254.483292,40.537666
368000,-3.646369,-1.496376,7.879318,-33.286568,257.429871,41.072018
372000,-3.713407,-1.386243,8.164227,-34.095726,258.300110,40.873543
376000,-3.485958,-1.623269,8.556877,-33.515575,266.284851,42.568199
380000,-3.402161,-1.486799,8.429984,-32.248398,275.521484,43.010948
384000,-3.596091,-1.582567,8.178593,-30.569012,282.345917,43.178886
388000,-3.804387,-1.549049,7.723695,-28.233131,285.765747,42.766674
392000,-3.998317,-1.594538,7.398083,-25.683514,287.399353,41.972782
396000,-4.292804,-1.458069,6.888118,-23.683514,283.628357,40.140720
400000,-4.469975,-1.484405,6.505046,-21.133896,279.399353,38.675072
404000,-4.546589,-1.364695,6.390124,-19.042292,274.193237,36.644535
408000,-4.896142,-1.271321,5.968745,-17.011759,265.887878,34.430798
412000,-5.097255,-1.285686,5.691018,-15.225499,260.452789,32.949879
416000,-5.197812,-1.149217,5.382165,-14.110995,256.880249,31.194155
420000,-5.422867,-0.979228,4.826711,-12.645347,253.719940,30.110186
424000,-5.616797,-0.984017,4.644751,-13.851453,248.315353,28.949881
428000,-5.446809,-0.854730,4.702212,-13.179698,246.452759,28.064383
432000,-5.391742,-0.837971,4.402937,-12.660613,250.086349,27.636902
436000,-5.427655,-0.730232,4.060566,-14.156796,254.086349,27.484230
440000,-5.657499,-0.723049,3.766079,-16.828552,254.361160,26.094917
444000,-5.544971,-0.699107,3.670311,-17.866720,257.796295,26.110186
448000,-5.657499,-0.538695,3.476381,-22.309467,258.834473,25.270491
452000,-5.475539,-0.608127,3.581726,-24.782751,261.857361,23.972780
456000,-5.523423,-0.701501,3.145981,-24.828552,267.048187,23.102551
460000,-5.832275,-0.715866,2.451663,-24.507942,273.048187,22.323925
464000,-6.622362,-0.682347,1.333570,-25.943056,270.666534,21.117819
468000,-7.433996,-0.711078,0.519542,-28.767483,260.742859,19.423162
472000,-7.869741,-0.816423,0.009577,-30.813286,249.689407,18.552933
476000,-8.039729,-0.847547,-0.004788,-31.210232,238.162689,17.346827
480000,-8.611943,-0.938527,-0.019154,-31.500309,224.223755,16.720873
484000,-8.365341,-1.048660,0.237026,-33.164429,210.391693,15.530032
488000,-8.274361,-1.003170,0.869095,-34.492676,201.017654,15.621634
492000,-7.975086,-1.106121,1.551443,-34.721684,198.361160,17.133085
496000,-7.347805,-0.960075,1.640028,-36.553741,202.635971,18.339193
500000,-7.113173,-0.811634,1.656788,-40.278934,209.384064,18.415529
504000,-6.703765,-0.763750,1.752556,-45.286568,220.071091,18.995682
508000,-6.217742,-0.727837,2.042254,-49.927788,237.811539,19.682705
512000,-5.992687,-0.639252,2.061408,-54.370537,257.582550,19.407894
516000,-6.047753,-0.603339,1.561020,-55.943054,277.032928,18.965147
520000,-6.789956,-0.593762,0.727837,-60.859085,284.422241,15.988046
524000,-7.158663,-0.811634,0.162806,-62.752213,288.819183,15.423162
528000,-7.314286,-0.893037,0.323217,-63.454506,293.399353,13.178886
532000,-8.030152,-1.108515,0.009577,-61.485039,289.872620,10.858275
536000,-8.580819,-1.355118,-0.146046,-59.271301,279.002411,9.041482
540000,-8.453926,-1.343147,-0.062249,-57.637711,267.567291,5.407895
544000,-8.607155,-1.455675,0.478840,-54.355270,259.964233,3.652169
548000,-8.640674,-1.838747,0.562637,-48.736950,256.727600,3.621635
552000,-9.062054,-1.910573,0.756568,-43.393436,247.704666,1.209421
556000,-9.325416,-1.941698,0.045490,-35.286568,239.261917,1.865910
560000,-10.043676,-1.860295,-0.624887,-30.172062,222.055817,0.415528
564000,-9.821015,-1.903390,-1.139640,-26.233131,210.406967,1.728505
568000,-9.595961,-1.905785,-1.321599,-23.057560,210.834442,3.759039
572000,-10.347740,-1.819593,-2.154782,-22.645346,201.628342,3.911711
576000,-10.113108,-1.582567,-2.482787,-22.584276,192.391693,4.843009
580000,-10.223241,-1.290475,-2.779668,-26.095728,188.025284,6.033849
584000,-9.641450,-1.326388,-2.571373,-26.553743,187.063446,9.881176
588000,-9.485827,-1.218649,-2.801216,-31.088093,183.322998,11.270490
592000,-9.078813,-1.084573,-3.002329,-34.462139,186.971848,13.789574
596000,-9.117120,-0.974440,-3.131616,-36.355270,183.781006,13.117818
600000,-9.076419,-0.984017,-3.529053,-36.752216,177.445129,14.049115
604000,-8.813056,-0.948104,-3.543418,-36.538475,177.124527,14.491863
608000,-9.138668,-0.878672,-3.641581,-36.187332,167.445129,13.453695
612000,-8.856153,-1.058237,-3.390190,-33.149162,158.574905,12.690337
616000,-8.669404,-1.036689,-3.081338,-29.866718,152.437500,11.346826
620000,-8.623915,-1.213860,-2.592921,-23.347635,143.979477,9.942245
624000,-8.154651,-1.151611,-2.616863,-17.500307,137.689407,7.652170
628000,-8.116343,-1.151611,-2.636016,-12.370538,132.834442,5.392627
632000,-8.310274,-1.029507,-2.760514,-10.614813,125.231400,2.446062
636000,-8.303091,-1.065420,-2.782062,-7.423973,123.613075,1.606368
640000,-8.530540,-1.019930,-2.949656,-8.782751,117.200867,-0.286762
644000,-8.185776,-1.144428,-2.949656,-6.187331,121.475670,0.125452
648000,-8.532935,-1.146823,-3.100491,-4.446874,127.139793,0.614001
652000,-9.071630,-1.053449,-3.722984,-3.836186,128.193222,1.591100
656000,-9.555259,-1.137246,-4.199430,-4.385805,126.345901,2.690337
660000,-10.158598,-1.146823,-4.692636,-3.683514,121.048195,4.369727
664000,-10.534488,-1.156399,-4.941632,-4.141530,112.116890,6.171253
668000,-10.678140,-1.187524,-5.109226,-4.233133,100.620712,8.033848
672000,-10.436325,-1.199495,-4.865018,-3.714049,91.216133,9.804840
676000,-10.134656,-1.223437,-4.797980,-2.324736,84.132164,11.163619
680000,-9.919178,-1.146823,-4.929661,-1.866720,78.544373,12.736138
684000,-9.641450,-1.106121,-5.075707,-1.088094,72.468040,13.423162
688000,-9.416395,-0.869095,-5.171476,-1.897255,67.628342,14.400260
692000,-9.054871,-0.723049,-5.078102,-3.423972,62.544373,14.873543
696000,-8.257602,-0.617704,-4.999093,-5.225499,61.796280,14.904078
700000,-7.800309,-0.347159,-5.195418,-7.897255,66.055824,14.262856
704000,-7.819463,-0.299275,-5.671864,-11.988858,71.368805,13.377359
708000,-7.972692,-0.241814,-5.947197,-14.431607,70.635979,12.155986
712000,-7.960721,-0.191536,-6.076484,-17.393438,67.811546,10.552932
716000,-8.003817,-0.263362,-5.805939,-20.156796,65.842087,9.087283
720000,-7.757214,-0.335188,-5.468357,-22.202599,66.422234,7.759039
724000,-7.742848,-0.347159,-5.051765,-24.095728,69.368805,6.614001
728000,-8.034941,-0.421380,-4.922479,-25.378170,70.468040,5.346826
732000,-8.212111,-0.567426,-5.032612,-26.065193,70.101624,4.278123
736000,-8.523358,-0.660800,-5.233725,-26.110994,67.216133,3.087284
740000,-8.815451,-0.823605,-5.255273,-24.416338,61.735210,1.942245
744000,-9.265560,-0.814029,-5.279215,-22.736948,52.773376,0.843009
748000,-9.540894,-0.967257,-5.260061,-19.271299,42.483303,0.232322
752000,-9.732430,-1.060631,-5.236119,-15.714049,30.880249,-0.729510
756000,-9.840169,-1.149217,-5.480328,-12.721683,19.277195,-0.912716
760000,-10.146626,-1.168370,-5.372589,-10.294202,5.750478,-1.141724
764000,-10.070012,-1.237802,-5.097255,-7.775118,-10.005248,-2.073022
768000,-9.665392,-1.300052,-4.929661,-3.103362,-15.440362,-0.927984
772000,-9.651027,-1.244985,-4.891354,-2.523209,-22.310591,-1.034854
776000,-9.246407,-1.130063,-4.790798,-0.324736,-25.806774,-0.989052
780000,-9.033323,-1.048660,-4.738125,0.545493,-27.425095,-1.355464
784000,-8.738836,-1.058237,-4.627992,3.461524,-21.852575,0.430795
788000,-8.688558,-1.395820,-5.049371,5.369921,-18.951813,1.636902
792000,-8.779537,-0.720655,-4.616021,2.347020,-12.127385,0.110184
796000,-9.227253,-0.644040,-5.504270,-0.706415,-27.944180,-3.233327
800000,-8.054094,-0.826000,-4.910508,0.163814,-8.982347,0.629268
804000,-8.925584,-0.624887,-5.111620,-4.370538,-6.203721,-0.790579
808000,-8.710106,-0.672771,-5.564125,-6.630079,-0.356392,1.346826
812000,-8.868123,-0.672771,-5.552154,-10.630079,7.155058,2.659803
816000,-8.836999,-0.567426,-5.248090,-13.805652,9.994752,2.644536
820000,-8.597578,-0.703895,-5.288792,-17.362904,14.819180,3.575833
824000,-8.446744,-0.773327,-5.260061,-19.683514,27.903149,5.178887
828000,-8.949526,-0.718261,-5.473145,-22.630079,31.490936,5.010948
832000,-9.188946,-0.883460,-5.623980,-25.103361,28.895515,4.491864
836000,-9.196129,-1.086968,-5.465962,-26.019392,31.582539,5.743773
840000,-9.399636,-1.142034,-5.171476,-26.950689,31.368797,6.278123
844000,-9.402030,-1.235408,-5.118803,-26.172064,30.193226,6.888811
848000,-9.402030,-1.221043,-4.970363,-24.355270,28.773378,7.591100
852000,-9.253590,-1.134852,-4.843470,-23.011759,25.979485,7.301024
856000,-9.011775,-1.151611,-4.726154,-22.492674,26.681776,6.751406
860000,-9.306262,-1.098939,-4.431667,-19.607178,22.651241,6.827742
864000,-9.095572,-1.096544,-4.280833,-15.393439,14.513836,6.507131
868000,-8.736442,-1.094150,-4.005499,-10.538477,10.239027,5.621635
872000,-8.353370,-1.175553,-3.823540,-4.278934,13.735210,7.026215
876000,-8.803479,-0.814029,-4.398149,-4.019392,4.269562,3.697971
880000,-8.599973,-0.732626,-4.735731,-1.500308,-3.089217,2.262856
884000,-8.434772,-0.703895,-4.723760,0.194348,-2.707537,1.117818
888000,-8.628703,-0.598550,-4.845864,0.377554,-8.738072,-0.668442
892000,-8.540117,-0.624887,-4.683059,0.972974,-10.967080,-1.187526
896000,-8.554482,-0.677559,-4.517859,0.484424,-10.524332,-1.477602
900000,-8.506598,-0.711078,-4.565742,-0.080461,-7.669369,-1.004319
904000,-8.382100,-0.684742,-4.663905,-1.133896,-4.218988,-0.531037
908000,-8.712500,-0.737414,-4.857835,-2.538476,-1.318224,-0.637907
912000,-8.619126,-0.742203,-4.697424,-4.889622,1.750478,0.629268
916000,-8.525752,-0.790087,-4.515464,-7.225499,6.269562,1.682703
920000,-8.406042,-0.806846,-4.388572,-8.752217,12.910783,2.476597
924000,-8.537724,-0.830788,-4.635174,-10.645347,19.460402,3.774307
928000,-8.820239,-0.849942,-4.872200,-12.584277,23.857347,4.858276
932000,-8.894460,-0.828394,-5.212177,-14.507943,25.765745,5.804841
936000,-9.078813,-0.962469,-5.116409,-15.805652,25.353531,6.476597
940000,-9.145850,-1.058237,-5.078102,-16.172064,23.597805,6.904078
944000,-9.411607,-1.058237,-5.092467,-15.927789,20.926050,7.514764
948000,-9.447520,-1.094150,-5.111620,-14.859088,16.223761,7.682703
952000,-9.478644,-1.060631,-5.154716,-13.561378,9.857347,8.033848
956000,-9.193734,-1.005565,-5.114015,-12.584277,5.643608,8.476596
960000,-9.167398,-0.890643,-5.018247,-12.645347,2.956585,8.308658
964000,-8.990228,-0.907402,-4.896142,-12.309468,1.613073,8.186520
968000,-8.858546,-0.919373,-4.750096,-11.622446,1.582539,7.957512
972000,-8.698134,-0.869095,-4.690241,-10.446874,1.536737,7.301024
976000,-8.585608,-0.811634,-4.707001,-9.393438,0.926050,6.491864
980000,-8.499416,-0.737414,-4.680665,-7.714049,-0.799140,5.087284
984000,-8.473080,-0.758962,-4.776433,-6.324736,-2.600667,3.392627
988000,-8.609550,-0.737414,-4.654328,-4.309469,-5.516697,1.820108
992000,-8.607155,-0.802058,-4.400543,-2.828552,-8.096850,0.186520
996000,-8.578424,-0.842759,-4.309563,-0.721682,-9.654102,-0.805846
1000000,-8.674192,-0.823605,-4.218584,0.881371,-10.417461,-1.767678
1004000,-8.746018,-0.914585,-4.297592,1.324119,-10.127385,-1.798213
1008000,-8.707711,-0.869095,-4.580108,0.576027,-9.089217,-1.385999
1012000,-8.777143,-0.792481,-4.659117,-1.988858,-6.600667,-0.363098
1016000,-8.592790,-0.679953,-4.793192,-5.057561,-0.768606,0.919345
1020000,-8.406042,-0.667982,-4.884171,-8.569011,6.468035,1.926978
1024000,-8.379706,-0.684742,-4.977545,-11.836186,12.666508,2.415528
1028000,-8.446744,-0.641646,-5.267244,-14.874354,16.834448,2.598734
1032000,-8.585608,-0.751779,-5.252879,-17.286568,18.712309,2.766673
1036000,-8.719683,-0.756568,-5.128380,-18.385803,18.590172,2.629268
1040000,-8.892065,-0.811634,-5.013458,-18.889620,17.903149,2.827742
1044000,-9.184157,-0.948104,-4.958392,-18.034658,15.643608,2.949879
1048000,-9.382876,-0.845153,-4.874595,-17.240767,12.254294,3.255223
1052000,-9.363723,-0.948104,-4.879383,-15.759851,7.414600,3.697971
1056000,-9.404425,-0.969652,-4.958392,-13.256034,2.926050,3.697971
1060000,-9.244013,-0.976834,-4.742914,-11.271301,-1.104484,3.804841
1064000,-9.205706,-0.854730,-4.769250,-9.225499,-5.302957,3.942245
1068000,-9.191340,-0.821211,-4.704607,-7.179698,-10.020514,3.667437
1072000,-8.956709,-0.873884,-4.434062,-4.736950,-14.035782,3.239955
1076000,-8.635885,-0.780510,-4.395754,-1.790385,-16.951813,2.339192
1080000,-8.439561,-0.797269,-4.355053,1.049310,-19.501431,1.056749
1084000,-8.458714,-0.727837,-4.424485,3.644730,-21.715172,-0.485235
1088000,-8.568848,-0.718261,-4.390966,5.705799,-24.295324,-1.920350
1092000,-8.729259,-0.778116,-4.541800,7.614195,-28.005247,-2.943251
1096000,-8.757990,-0.821211,-4.604050,8.927173,-31.272423,-3.508136
1100000,-8.860941,-0.794875,-4.541800,9.827936,-33.043415,-3.813480
1104000,-8.916007,-0.797269,-4.608838,9.980608,-33.944180,-3.889816
1108000,-8.947132,-0.768539,-4.735731,9.125646,-33.898376,-3.340197
1112000,-8.856153,-0.682347,-4.807557,7.385188,-32.677002,-2.347831
1116000,-8.724471,-0.617704,-4.845864,4.759233,-29.760973,-1.584472
1120000,-8.635885,-0.584185,-4.896142,1.644730,-24.631203,0.003314
1124000,-8.324639,-0.569820,-4.659117,-1.072828,-17.012880,1.316291
1128000,-8.116343,-0.577003,-4.635174,-3.652980,-7.272423,1.972780
1132000,-8.236053,-0.610521,-4.735731,-6.462141,1.017653,2.751406
1136000,-8.528147,-0.672771,-4.924873,-9.072827,6.361165,3.316291
1140000,-8.726865,-0.720655,-4.865018,-11.240767,8.987119,3.575833
1144000,-8.923190,-0.744597,-4.848258,-12.736949,9.613073,3.743773
1148000,-9.035717,-0.890643,-4.771644,-13.714049,8.910783,4.064383
1152000,-9.057265,-0.888249,-4.637568,-13.866721,8.010019,4.629269
1156000,-9.062054,-0.921768,-4.491522,-13.057561,7.445135,4.797207
1160000,-8.959103,-0.885855,-4.247314,-12.309468,6.895516,5.087284
1164000,-8.908825,-0.881066,-4.216189,-11.530843,6.071089,5.270490
1168000,-8.937555,-0.876278,-4.175488,-10.263667,4.254295,4.949879
1172000,-8.793902,-0.773327,-4.141969,-9.118629,1.460402,4.827742
1176000,-8.609550,-0.756568,-4.022259,-7.729317,-0.570133,4.323925
1180000,-8.437167,-0.715866,-3.749320,-5.851454,-1.425095,3.697971
1184000,-8.374918,-0.763750,-3.701436,-3.515576,-2.906011,2.812474
1188000,-8.331821,-0.718261,-3.584120,-1.668247,-4.524331,1.575833
1192000,-8.286332,-0.706290,-3.689465,0.133279,-5.837308,0.522398
1196000,-8.362947,-0.677559,-3.751714,2.270684,-6.753339,-0.454701
1200000,-8.518570,-0.663194,-4.067749,4.163814,-7.730438,-1.141724
1204000,-8.724471,-0.622492,-4.390966,5.354653,-9.531965,-1.492869
1208000,-8.911219,-0.624887,-4.704607,5.934806,-11.547233,-1.569205
1212000,-9.011775,-0.610521,-4.972757,5.965341,-13.745706,-1.340197
1216000,-8.997410,-0.653617,-5.011064,5.782134,-15.989981,-0.927984
1220000,-8.841787,-0.600945,-4.917690,5.125646,-16.509064,-0.454701
1224000,-8.650250,-0.610521,-4.829105,4.331753,-14.402194,0.446062
1228000,-8.386889,-0.567426,-4.505888,3.018775,-9.501431,0.980413
1232000,-8.226477,-0.519542,-4.582502,1.812669,-4.600667,1.026215
1236000,-8.245630,-0.471658,-4.639963,0.026409,-0.539598,1.087284
1240000,-8.262390,-0.433351,-4.718972,-1.408705,2.116890,0.705604
1244000,-8.463503,-0.483629,-4.912902,-2.859087,3.185592,0.247589
1248000,-8.667010,-0.605733,-4.917690,-4.141530,2.727577,-0.195159
1252000,-8.884883,-0.591368,-4.881777,-5.072827,1.093989,-0.363098
1256000,-9.054871,-0.646434,-4.752491,-6.172065,-1.180820,-0.286762
1260000,-9.023746,-0.701501,-4.659117,-7.240767,-2.951812,0.064383
1264000,-9.085996,-0.684742,-4.412514,-8.065194,-2.829675,0.400261
1268000,-9.117120,-0.696713,-4.328717,-8.782751,-2.066316,0.843009
1272000,-9.126697,-0.802058,-4.333505,-8.233133,-2.005247,1.194154
1276000,-9.138668,-0.830788,-4.240131,-8.095729,-3.272423,1.636902
1280000,-9.121908,-0.778116,-4.295198,-7.546110,-5.104484,1.774307
1284000,-9.064447,-0.799663,-4.161122,-7.240767,-6.554865,2.064383
1288000,-8.975863,-0.780510,-4.244920,-6.904889,-7.287690,2.125452
1292000,-8.777143,-0.802058,-4.082114,-6.538477,-6.722805,1.820108
1296000,-8.683769,-0.766145,-4.089296,-5.820919,-6.096850,1.911711
1300000,-8.746018,-0.656011,-4.158728,-5.469774,-6.570133,1.697971
1304000,-8.688558,-0.660800,-4.149151,-5.271301,-7.089217,1.331558
1308000,-8.688558,-0.603339,-4.232949,-5.698782,-6.371659,1.621635
1312000,-8.805874,-0.658405,-3.881001,-4.248401,-8.677003,1.102551
1316000,-8.829816,-0.691924,-3.835511,-2.049927,-11.791507,0.583467
1320000,-8.676587,-0.780510,-3.892972,-0.080461,-10.738072,0.384994
1324000,-9.330204,-0.418985,-3.983952,-2.065194,-13.593034,0.262856
1328000,-8.741230,-0.826000,-3.411737,0.698165,-16.799141,-0.714243
1332000,-8.650250,-0.802058,-3.497929,4.682898,-12.341125,0.278123
1336000,-8.762778,-0.718261,-3.696647,5.766867,-10.875477,0.736139
1340000,-8.573636,-0.715866,-3.519476,6.285951,-10.203721,1.041482
1344000,-8.188169,-0.560243,-3.634398,6.667630,-4.005247,1.407894
1348000,-8.200141,-0.488417,-4.043807,5.858470,2.819180,1.896444
1352000,-8.355764,-0.464475,-4.347870,3.721066,5.567272,1.407894
1356000,-8.449138,-0.469264,-4.460398,1.186714,8.910783,2.125452
1360000,-8.513782,-0.519542,-4.352659,-0.981224,13.170325,2.568200
1364000,-8.418014,-0.514753,-4.230555,-2.798018,17.811546,3.133085
1368000,-8.406042,-0.493206,-4.316746,-4.706415,22.391699,4.232322
1372000,-8.532935,-0.524330,-4.611232,-6.462141,25.964218,4.415528
1376000,-8.604761,-0.433351,-4.893748,-8.065194,27.613073,4.614001
1380000,-8.717288,-0.464475,-5.116409,-9.256034,26.880249,4.568200
1384000,-8.916007,-0.517148,-5.073313,-9.439240,24.559637,4.369727
1388000,-9.002198,-0.634463,-5.030218,-9.149163,20.422234,4.186521
1392000,-8.987833,-0.632069,-4.953603,-8.507942,15.292462,3.728505
1396000,-8.901642,-0.711078,-4.793192,-7.485042,10.101623,2.843009
1400000,-8.755595,-0.711078,-4.560954,-6.492675,5.490936,2.094917
1404000,-8.652645,-0.763750,-4.560954,-5.072827,1.536737,1.133085
1408000,-8.659827,-0.744597,-4.458004,-3.240766,-2.738072,0.171253
1412000,-8.664616,-0.730232,-4.429273,-1.775118,-6.371659,-1.172258
1416000,-8.724471,-0.821211,-4.462792,-0.233133,-9.699904,-1.935617
1420000,-8.951921,-0.833182,-4.668694,1.156180,-13.593034,-2.714243
1424000,-8.990228,-0.814029,-4.611232,2.698165,-18.554867,-3.508136
1428000,-8.997410,-0.859518,-4.577713,4.209615,-22.799141,-4.088289
1432000,-8.899248,-0.809240,-4.295198,5.751600,-25.257156,-4.149358
1436000,-8.834604,-0.785298,-4.197036,7.797401,-26.829676,-4.302029
1440000,-8.769960,-0.768539,-4.077325,9.095112,-28.234255,-4.393632
1444000,-8.750807,-0.658405,-4.129998,10.316485,-29.119751,-4.515770
1448000,-8.633492,-0.672771,-3.986346,11.278317,-27.974712,-4.805846
1452000,-8.578424,-0.663194,-3.809175,12.240149,-26.081583,-4.943251
1456000,-8.549694,-0.600945,-3.955221,12.453890,-25.104485,-5.202793
1460000,-8.566454,-0.624887,-4.120421,11.995874,-23.822042,-5.019587
1464000,-8.698134,-0.505177,-4.429273,10.026409,-21.760973,-4.729510
1468000,-8.822633,-0.486023,-4.493917,7.278317,-18.860210,-3.996686
1472000,-8.839393,-0.462081,-4.750096,4.514959,-15.364026,-3.050121
1476000,-8.860941,-0.464475,-4.786009,1.476791,-11.638836,-2.347831
1480000,-8.825027,-0.509965,-4.735731,-1.286568,-6.860209,-1.294396
1484000,-8.901642,-0.562637,-4.683059,-3.469774,-2.906011,-0.576838
1488000,-8.973468,-0.667982,-4.448427,-4.874354,-0.570133,0.308658
1492000,-8.961497,-0.679953,-4.139575,-5.698782,1.765745,1.301024
1496000,-8.971074,-0.770933,-3.924097,-5.622446,4.483303,1.682703
1500000,-9.014170,-0.739808,-4.029441,-5.027026,5.597806,2.049116
1504000,-9.042900,-0.778116,-3.993528,-4.584278,5.475669,2.644536
1508000,-9.088389,-0.699107,-4.041412,-3.973591,4.239028,2.461329
1512000,-9.045294,-0.730232,-3.960010,-3.393438,2.773379,2.568200
1516000,-8.968679,-0.758962,-3.763685,-2.660614,1.613073,2.522398
1520000,-8.872911,-0.699107,-3.835511,-1.836186,-0.127385,2.430795
1524000,-8.848969,-0.615310,-3.818752,-0.706415,-2.203721,2.400261
1528000,-8.638280,-0.569820,-3.981557,0.148546,-3.531965,1.911711
1532000,-8.489840,-0.445322,-4.247314,0.896638,-4.081583,1.530032
1536000,-8.487445,-0.452504,-4.378995,1.186714,-5.058682,0.980413
1540000,-8.480263,-0.390255,-4.424485,0.866104,-5.959445,0.262856
1544000,-8.295909,-0.447716,-4.204218,0.743966,-4.936545,-0.042487
1548000,-8.147469,-0.483629,-3.967192,1.354653,-0.539598,-0.164625
1552000,-8.228871,-0.502782,-4.235343,1.614195,3.353531,-0.500503
1556000,-8.429984,-0.486023,-4.517859,0.698165,4.803913,-0.622640
1560000,-8.614338,-0.459687,-4.654328,-0.019392,4.987119,-0.866915
1564000,-8.743625,-0.584185,-4.697424,-0.401072,3.842081,-0.866915
1568000,-8.743625,-0.615310,-4.630386,-0.935423,2.406966,-1.004319
1572000,-8.669404,-0.600945,-4.632780,-1.133896,1.765745,-1.187526
1576000,-8.808268,-0.598550,-4.659117,-1.393438,1.277195,-1.202793
1580000,-8.796297,-0.653617,-4.697424,-2.110996,-0.203721,-1.187526
1584000,-8.803479,-0.557849,-4.654328,-2.920156,-2.203721,-1.462335
1588000,-8.738836,-0.639252,-4.575319,-3.194965,-3.073950,-1.263861
1592000,-8.714894,-0.699107,-4.328717,-3.485041,-2.875476,-1.279129
1596000,-8.710106,-0.715866,-4.062960,-3.454507,-2.646469,-1.248594
1600000,-8.719683,-0.727837,-4.062960,-3.485041,-3.394560,-1.447067
1604000,-8.717288,-0.679953,-3.943250,-3.164430,-3.409827,-1.340197
1608000,-8.686164,-0.737414,-3.734955,-2.538476,-2.341125,-1.034854
1612000,-8.781932,-0.703895,-3.758897,-1.927789,-1.623568,-1.004319
1616000,-8.690952,-0.675165,-3.835511,-1.530843,-1.669369,-1.019587
1620000,-8.834604,-0.627281,-3.948039,-0.874354,-2.249522,-0.836380
1624000,-8.920795,-0.579397,-4.089296,0.011142,-2.814408,-1.248594
1628000,-8.887277,-0.593762,-4.101267,0.270684,-4.264789,-1.202793
1632000,-8.872911,-0.438139,-4.122815,0.179081,-4.967079,-1.279129
1636000,-8.707711,-0.550666,-3.995923,-0.263667,-4.081583,-1.294396
1640000,-8.678981,-0.569820,-4.027047,-0.584278,-2.173186,-1.019587
1644000,-8.729259,-0.632069,-4.201824,-1.149163,-0.280056,-1.050121
1648000,-8.698134,-0.541090,-4.364630,-1.439240,-0.264789,-1.111190
1652000,-8.836999,-0.562637,-4.328717,-1.851454,-1.104484,-1.263861
1656000,-8.896853,-0.605733,-4.249708,-1.820919,-1.608301,-1.782945
1660000,-9.030929,-0.689530,-4.168305,-1.591912,-2.509064,-1.599739
1664000,-8.911219,-0.711078,-4.091691,-1.179698,-3.837308,-1.401266
1668000,-8.959103,-0.775721,-4.005499,-0.828552,-4.402194,-1.401266
1672000,-8.889671,-0.737414,-4.074931,-0.110996,-4.112117,-1.126457
1676000,-8.619126,-0.766145,-4.031836,0.209615,-3.684637,-0.882182
1680000,-8.552089,-0.799663,-3.684676,1.446256,-0.890743,-0.836380
1684000,-8.552089,-0.730232,-3.660734,2.911905,2.132157,-0.927984
1688000,-8.609550,-0.701501,-3.928885,3.812669,3.246661,-1.218060
1692000,-8.743625,-0.658405,-4.113238,4.133279,2.162692,-1.431800
1696000,-8.769960,-0.567426,-4.094085,4.209615,0.956585,-1.462335
1700000,-8.712500,-0.608127,-3.926491,3.812669,0.406966,-1.263861
1704000,-8.614338,-0.612916,-3.921702,3.965340,0.406966,-1.218060
1708000,-8.504205,-0.548272,-3.981557,4.224883,1.582539,-1.065388
1712000,-8.580819,-0.392649,-4.192247,3.354653,2.926050,-1.172258
1716000,-8.621520,-0.368707,-4.424485,2.285951,3.643608,-1.492869
1720000,-8.669404,-0.404620,-4.532224,0.789768,3.521470,-1.844014
1724000,-8.700529,-0.459687,-4.484340,-0.401072,3.338264,-2.088289
1728000,-8.860941,-0.469264,-4.479551,-1.011759,2.910783,-2.332564
1732000,-8.822633,-0.641646,-4.436456,-1.607178,2.605440,-2.256228
1736000,-9.059659,-0.627281,-4.390966,-1.881988,1.826814,-2.057755
1740000,-9.038112,-0.720655,-4.297592,-2.401072,0.834447,-1.950884
1744000,-9.172187,-0.814029,-4.374207,-2.355270,-0.035782,-1.828747
1748000,-9.172187,-0.746991,-4.240131,-1.988858,-1.180820,-1.630274
1752000,-9.270349,-0.821211,-4.311957,-1.851454,-2.921278,-1.523403
1756000,-9.165004,-0.866701,-4.357447,-1.973591,-4.829675,-1.141724
1760000,-9.081207,-0.840365,-4.118027,-1.851454,-5.302957,-0.744777
1764000,-9.030929,-0.890643,-3.983952,-1.668247,-4.753339,-0.882182
1768000,-8.992621,-0.830788,-4.084508,-0.904888,-4.463263,-0.378365
1772000,-9.002198,-0.742203,-4.120421,-0.614812,-4.860209,-0.653174
1776000,-9.002198,-0.758962,-4.129998,-0.889621,-5.623568,-0.485235
1780000,-8.841787,-0.763750,-3.912126,-1.225499,-4.692270,-0.118823
1784000,-8.693346,-0.739808,-3.713407,-1.683514,-1.547232,0.293391
1788000,-8.710106,-0.763750,-3.713407,-1.423972,1.460402,0.614001
1792000,-8.839393,-0.708684,-3.655946,-1.225499,3.719944,0.812474
1796000,-8.853758,-0.703895,-3.821146,-0.965957,5.124524,0.888810
1800000,-8.975863,-0.727837,-3.940856,-0.416339,4.666509,0.568200
1804000,-9.054871,-0.679953,-3.969586,0.163814,2.880249,0.491864
1808000,-9.028535,-0.766145,-4.098873,1.034043,1.261928,0.201787
1812000,-9.093178,-0.763750,-4.043807,2.087478,-0.463263,-0.225693
1816000,-9.028535,-0.814029,-4.050989,2.789768,-1.898377,0.033849
1820000,-8.937555,-0.787692,-4.060566,3.721066,-1.623568,-0.042487
1824000,-8.997410,-0.732626,-4.110844,4.118012,-1.272423,0.110184
1828000,-9.002198,-0.723049,-4.364630,3.858470,-1.806774,0.003314
1832000,-9.033323,-0.696713,-4.572925,3.492058,-2.570133,0.079650
1836000,-9.141062,-0.708684,-4.793192,2.911905,-3.806774,0.278123
1840000,-9.248801,-0.615310,-4.884171,2.148547,-6.096850,0.766673
1844000,-9.071630,-0.505177,-4.884171,0.728699,-8.906011,0.690337
1848000,-8.863335,-0.536301,-4.709395,0.056943,-10.280057,0.919345
1852000,-8.655039,-0.507571,-4.376601,-0.462140,-10.554866,0.934612
1856000,-8.532935,-0.548272,-4.223372,-0.614812,-9.898377,0.598734
1860000,-8.453926,-0.603339,-4.108450,-0.309469,-8.829675,0.125452
1864000,-8.547300,-0.603339,-4.139575,0.087478,-9.043416,-0.439434
1868000,-8.609550,-0.608127,-4.177882,0.576027,-9.898377,-1.095922
1872000,-8.676587,-0.665588,-4.141969,0.942440,-11.425095,-1.508136
1876000,-8.741230,-0.679953,-4.113238,1.018775,-12.829675,-1.553938
1880000,-8.741230,-0.691924,-3.916914,0.499691,-12.799141,-1.279129
1884000,-8.209718,-0.708684,-3.263297,0.179081,-6.875476,-0.546304
1888000,-8.085219,-0.742203,-3.179500,-0.263667,3.552005,0.155986
1892000,-8.236053,-0.651223,-3.414132,-1.775118,11.307730,0.644536
1896000,-8.544906,-0.632069,-3.787627,-3.790385,15.887882,0.965146
1900000,-8.667010,-0.684742,-4.175488,-5.561378,17.475668,0.888810
1904000,-9.018958,-0.689530,-4.151546,-6.523210,17.689409,1.026215
1908000,-9.109938,-0.758962,-4.017470,-6.202599,16.162691,1.499497
1912000,-9.117120,-0.866701,-3.751714,-4.798018,14.651241,1.652169
1916000,-8.987833,-0.881066,-3.572149,-2.172064,13.582539,1.667436
1920000,-9.100361,-0.928950,-3.768473,0.163814,11.658875,1.484230
1924000,-9.131485,-0.940921,-3.821146,1.950073,8.697042,1.453696
1928000,-9.090784,-0.883460,-3.895366,3.889004,5.765745,1.209421
1932000,-9.040505,-0.780510,-4.120421,5.690531,3.170325,0.827742
1936000,-8.954314,-0.735020,-4.381389,6.576027,0.788646,0.720871
1940000,-8.935161,-0.663194,-4.446033,6.957707,-1.257156,0.247589
1944000,-8.880095,-0.711078,-4.510676,6.560760,-2.890743,0.354459
1948000,-8.896853,-0.579397,-4.781221,5.598928,-4.020514,0.354459
1952000,-8.676587,-0.591368,-4.510676,4.347020,-3.654102,0.583467
1956000,-8.568848,-0.624887,-4.663905,2.774501,-1.638835,1.239955
1960000,-8.528147,-0.586579,-4.766856,1.583661,0.071089,1.117818
1964000,-8.468291,-0.478840,-4.805163,-0.156797,0.712310,1.102551
1968000,-8.556877,-0.459687,-4.855441,-1.515576,0.773379,0.843009
1972000,-8.520964,-0.493206,-4.663905,-2.584278,0.361165,0.339192
1976000,-8.623915,-0.512359,-4.498705,-3.240766,0.071089,0.583467
1980000,-8.540117,-0.581791,-4.268862,-3.133896,0.055821,0.003314
1984000,-8.542512,-0.663194,-4.036624,-2.736950,1.032921,-0.332564
1988000,-8.585608,-0.603339,-4.144363,-1.698782,1.979486,-0.256228
1992000,-8.765172,-0.622492,-4.256891,-1.271301,0.361165,-1.202793
1996000,-8.916007,-0.600945,-4.395754,-1.240766,-3.180820,-1.599739
