time_us,ax,ay,az,gx,gy,gz
0,1.577779,-0.639252,8.592790,-2.477408,1.155058,-4.317297
4000,1.584962,-0.706290,8.784326,-2.492675,3.078722,-3.767678
8000,1.589750,-0.691924,8.856153,-2.889621,6.162692,-2.897449
12000,1.556231,-0.711078,8.791509,-3.332370,8.971851,-2.118823
16000,1.505953,-0.737414,8.896853,-3.958324,10.788646,-1.050121
20000,1.553837,-0.770933,9.112331,-3.469774,13.093989,-0.225693
24000,1.661576,-0.756568,9.311050,-2.569010,15.368798,0.675070
28000,1.731008,-0.691924,9.114726,-2.263667,16.727577,1.010948
32000,1.699883,-0.708684,8.987833,-2.996492,17.292461,0.919345
36000,1.745373,-0.644040,8.961497,-2.340003,17.979485,0.949879
40000,1.833959,-0.660800,8.932767,-2.431606,16.849714,0.125452
44000,1.910573,-0.682347,9.117120,-2.278934,16.254293,-0.225693
48000,2.039860,-0.701501,9.251195,-1.057560,16.635973,-0.897449
52000,2.047042,-0.646434,9.143456,-0.187331,18.315363,-1.553938
56000,1.934515,-0.620098,9.105149,0.743966,18.574905,-1.889816
60000,1.781286,-0.627281,9.095572,1.430989,16.819180,-2.347831
64000,1.845930,-0.634463,9.169792,2.240149,17.063456,-2.561571
68000,1.766921,-0.639252,8.966286,2.789768,18.010019,-2.531037
72000,1.685518,-0.565032,8.956709,2.499691,18.223761,-2.225693
76000,1.651999,-0.521936,8.978256,2.530226,19.246660,-1.767678
80000,1.771709,-0.562637,9.018958,1.873737,21.353531,-1.111190
84000,1.817199,-0.483629,8.899248,0.866104,25.109257,-0.240961
88000,1.912967,-0.490811,9.040505,-0.248400,30.406965,0.339192
92000,1.810017,-0.545878,9.373300,-0.294202,33.536736,0.552933
96000,1.891419,-0.644040,9.524135,-0.156797,36.315365,0.568200
100000,1.843535,-0.632069,9.624691,0.148546,39.582539,1.087284
104000,1.659182,-0.579397,9.370906,0.209615,42.803913,1.530032
108000,1.486799,-0.577003,9.196129,-0.874354,45.719944,2.919345
112000,1.434127,-0.610521,9.133880,-2.492675,48.544373,4.339192
116000,1.568202,-0.579397,9.062054,-3.988858,51.842079,5.499497
120000,1.577779,-0.550666,9.126697,-6.080462,57.185593,7.224689
124000,1.563414,-0.598550,9.126697,-7.683515,62.864983,8.827742
128000,1.611298,-0.524330,8.992621,-9.866721,68.681778,9.988047
132000,1.529895,-0.591368,8.935161,-12.110995,73.933685,11.072016
136000,1.616086,-0.610521,8.817844,-13.454507,78.758118,12.217054
140000,1.458069,-0.531513,8.774749,-15.378171,84.071091,12.614001
144000,1.175553,-0.500388,8.422802,-16.492674,83.857353,12.537665
148000,1.115698,-0.586579,8.544906,-18.401072,85.093994,12.262856
152000,0.993594,-0.663194,8.652645,-18.721682,88.544373,13.209421
156000,0.730232,-0.706290,8.602366,-19.149162,89.994759,13.881176
160000,0.584185,-0.634463,8.418014,-19.378170,89.231400,14.507131
164000,0.565032,-0.663194,8.590396,-19.546110,88.010025,15.133085
168000,0.586579,-0.677559,8.573636,-21.271299,87.445137,15.087283
172000,0.337582,-0.835576,9.035717,-19.958323,89.384071,16.995682
176000,0.562637,-0.849942,9.131485,-17.881987,89.796280,18.049116
180000,0.770933,-0.864307,9.179369,-16.248400,92.788651,18.415529
184000,0.660800,-0.811634,8.999804,-15.576644,95.124527,18.644537
188000,0.586579,-0.763750,8.882488,-14.950690,95.781013,18.415529
192000,0.560243,-0.806846,8.920795,-15.042293,95.200867,18.155987
196000,0.579397,-0.837971,8.997410,-14.736949,94.559639,17.499498
200000,0.605733,-0.830788,9.081207,-14.126264,95.032921,16.781940
204000,0.502782,-0.804452,8.937555,-14.141530,94.513840,16.354460
208000,0.521936,-0.861913,9.014170,-13.775117,95.353539,15.606368
212000,0.407014,-0.876278,9.028535,-14.080461,95.979492,14.965146
216000,0.213084,-0.964863,8.889671,-14.233132,97.445137,14.614001
220000,-0.038307,-0.931344,8.597578,-14.034659,98.300102,14.537665
224000,-0.332794,-0.955287,8.528147,-13.790385,96.605446,14.140718
228000,-0.426168,-0.981623,8.549694,-13.103362,93.704681,13.621634
232000,-0.502782,-0.981623,8.573636,-11.759851,90.620712,12.934611
236000,-0.500388,-0.943315,8.559271,-10.584278,87.506210,12.064383
240000,-0.553061,-0.888249,8.504205,-9.652981,83.979492,10.629268
244000,-0.474052,-0.849942,8.662222,-8.981225,81.292465,9.499497
248000,-0.536301,-0.964863,8.707711,-7.988858,80.025291,8.537665
252000,-0.466869,-0.926556,8.999804,-6.706415,78.971855,7.606368
256000,-0.493206,-1.048660,9.148245,-5.301835,80.239029,6.781940
260000,-0.653617,-1.055843,9.107543,-3.851454,80.223763,6.308658
264000,-0.936133,-1.053449,8.868123,-2.889621,79.628342,6.186521
268000,-1.115698,-1.074997,8.918402,-2.736950,78.544373,6.323925
272000,-1.055843,-1.151611,8.923190,-2.538476,78.040558,6.446063
276000,-1.170765,-1.089362,8.884883,-2.446873,78.590179,7.133085
280000,-1.185130,-1.046266,8.779537,-3.561377,79.872620,8.247588
284000,-1.206678,-0.969652,8.796297,-5.317102,83.063461,9.209421
288000,-1.108515,-0.964863,8.633492,-7.485042,87.704681,10.858275
292000,-1.278504,-0.842759,8.420407,-9.378171,91.994759,11.957512
296000,-1.424550,-0.885855,8.389283,-11.408706,95.765747,13.072016
300000,-1.556231,-0.849942,8.269572,-13.546111,98.697044,14.461329
304000,-1.587356,-0.888249,8.269572,-14.965957,100.071091,15.194154
308000,-1.721431,-0.921768,8.319851,-15.805652,99.887886,15.636901
312000,-1.687912,-0.940921,8.370130,-16.859087,97.521477,15.896443
316000,-1.690306,-0.976834,8.492233,-16.889620,97.032921,15.743772
320000,-1.678335,-1.043872,8.623915,-16.645346,95.429871,15.301023
324000,-1.778892,-1.120486,8.588001,-16.248400,94.559639,14.858275
328000,-1.810017,-1.194707,8.774749,-15.072827,93.277199,14.201787
332000,-1.912967,-1.268927,8.942344,-13.836186,91.933685,13.423162
336000,-1.951274,-1.357512,9.100361,-11.393438,90.742851,12.629268
340000,-2.073379,-1.340753,9.006987,-8.828553,90.086357,12.125451
344000,-2.114080,-1.345541,9.038112,-6.309469,88.559639,11.591100
348000,-2.157176,-1.352724,9.006987,-4.950690,87.857353,11.178886
352000,-2.147599,-1.465251,8.985439,-3.225499,88.620712,11.224688
356000,-2.303222,-1.414973,8.966286,-2.401072,86.758118,10.659802
360000,-2.171541,-1.429338,9.153033,-1.027026,88.437508,10.827742
364000,-1.999158,-1.331176,9.205706,-0.004125,91.261932,10.736138
368000,-1.991976,-1.297657,9.153033,1.278317,95.613075,10.461329
372000,-2.197877,-1.273715,8.947132,1.492058,98.788651,10.476596
376000,-2.221819,-1.297657,8.942344,1.751600,100.788651,10.079650
380000,-2.434903,-1.323994,8.753201,1.934806,103.536743,9.911711
384000,-2.571373,-1.316811,8.382100,2.362287,105.887886,10.369726
388000,-2.834735,-1.331176,8.204929,2.484425,106.742851,10.262856
392000,-2.985569,-1.307234,7.946355,2.698165,106.483307,10.476596
396000,-2.815581,-1.225831,7.936779,2.835569,107.643608,10.766672
400000,-3.327940,-1.278504,7.694964,4.530226,108.849716,9.530031
404000,-3.466804,-1.221043,7.369353,3.965340,103.399338,8.491863
408000,-3.263297,-1.077391,7.419631,1.369921,99.322998,6.812475
412000,-3.725378,-1.211466,7.527370,1.293585,97.658875,7.774307
416000,-3.658340,-1.292869,7.620744,3.079844,93.185593,8.430795
420000,-3.646369,-1.254562,7.556100,3.263050,90.681778,8.491863
424000,-3.842694,-1.326388,7.505822,2.805035,88.132164,9.010947
428000,-3.883395,-1.204283,7.278373,1.308852,86.437508,10.003314
432000,-3.902549,-1.225831,7.436390,-0.248400,85.567276,11.102551
436000,-3.782839,-1.259350,7.568071,-1.271301,85.475670,11.606367
440000,-3.842694,-1.254562,7.898471,-0.935423,86.803917,12.614001
444000,-3.813963,-1.249773,7.951144,-1.714049,88.239029,13.316291
448000,-3.756502,-1.273715,8.094796,-2.309469,90.681778,14.552932
452000,-3.794810,-1.233014,8.252813,-3.286568,92.605446,15.453695
456000,-3.615245,-1.242591,8.537724,-2.920156,94.025291,16.018581
460000,-3.447650,-1.256956,8.908825,-1.439240,98.361168,16.186522
464000,-3.452439,-1.319205,8.975863,0.362287,104.116890,16.430796
468000,-3.545813,-1.295263,8.734048,1.598928,108.239029,16.461330
472000,-3.718195,-1.290475,8.530540,2.881371,110.254295,16.293390
476000,-3.766079,-1.283292,8.429984,4.469157,111.368805,15.850642
480000,-3.529053,-1.228225,8.267179,6.255417,111.887886,13.652169
484000,-3.737349,-1.211466,8.008605,7.278317,116.147430,13.331558
488000,-4.230555,-1.055843,7.429208,8.514958,114.758118,13.667436
492000,-4.474763,-0.991199,7.247249,10.056944,110.315369,12.094917
496000,-4.620809,-0.950498,7.022193,10.423356,102.987122,11.209421
500000,-4.683059,-0.950498,6.950367,10.866104,99.597809,11.133085
504000,-4.647145,-0.859518,7.003040,11.278317,95.994759,10.888810
508000,-4.654328,-0.928950,7.180211,12.347019,91.842087,10.766672
512000,-4.618415,-0.952892,7.196970,12.698165,90.834450,10.766672
516000,-4.697424,-0.950498,6.988675,12.759233,90.910789,10.751406
520000,-4.831499,-0.900220,6.734890,12.026409,92.116890,11.316291
524000,-4.886566,-0.876278,6.804321,10.789768,93.674149,11.988047
528000,-4.819528,-0.763750,6.579266,9.492058,95.506210,12.827742
532000,-5.018247,-0.823605,6.507440,7.201982,95.613075,13.148352
536000,-4.929661,-0.761356,6.564901,5.278317,99.704681,13.988047
540000,-4.955997,-0.715866,6.471527,3.079844,103.277199,15.545299
544000,-5.013458,-0.658405,6.342240,-0.385804,107.781013,16.995682
548000,-5.142745,-0.689530,6.246472,-4.523210,113.048195,19.255222
552000,-5.202600,-0.577003,6.086061,-9.759851,118.483307,20.995682
556000,-5.169082,-0.624887,6.009446,-13.958323,126.788651,23.545300
560000,-5.439626,-0.596156,5.810728,-19.103361,133.750473,26.232323
564000,-5.363012,-0.699107,5.774815,-22.019392,139.628342,28.308659
568000,-5.559336,-0.610521,5.698200,-24.630079,142.223755,29.148354
572000,-5.851429,-0.639252,5.762844,-26.294201,140.086349,29.194155
576000,-5.803545,-0.699107,5.997475,-25.897255,139.964218,29.728506
580000,-5.870583,-0.797269,6.114791,-24.553743,136.834442,28.690338
584000,-5.738902,-0.785298,6.169858,-21.103361,133.429871,27.911713
588000,-5.930438,-0.842759,6.296751,-17.973591,127.185593,25.652170
592000,-5.786786,-0.921768,6.296751,-13.866721,123.078728,24.094917
596000,-6.004658,-0.809240,6.203377,-10.523210,117.460403,21.652170
600000,-6.069301,-0.936133,6.215348,-7.118629,111.674149,19.942245
604000,-5.983110,-0.936133,6.126762,-4.248401,108.177963,18.461330
608000,-6.040571,-0.871489,5.884948,-2.752217,107.460403,17.621635
612000,-6.279991,-0.814029,6.277597,-1.836186,105.384071,16.843010
616000,-6.430826,-0.972046,6.203377,0.118012,102.529106,17.239956
620000,-6.236896,-1.074997,6.263232,2.240149,106.697044,18.827742
624000,-6.291962,-0.945710,6.026206,1.873737,108.971855,19.621635
628000,-6.184223,-0.883460,5.702989,0.056943,113.918419,21.285757
632000,-6.526594,-0.799663,5.430049,-1.561377,116.605446,21.346827
636000,-6.655881,-0.742203,5.008670,-4.065194,117.322998,22.705605
640000,-6.567295,-0.782904,5.063736,-4.767485,121.918419,23.820108
644000,-6.540959,-0.768539,4.872200,-5.118629,126.284836,25.133085
648000,-6.749255,-0.746991,4.707001,-6.462141,130.987122,25.789574
652000,-7.151481,-0.735020,4.623203,-6.935423,132.376434,27.301025
656000,-7.201759,-0.725443,4.458004,-7.439240,131.246658,27.988047
660000,-7.335834,-0.682347,4.326323,-8.492675,128.193222,27.774307
664000,-7.273585,-0.701501,4.232949,-8.859087,128.819183,28.384995
668000,-7.340622,-0.665588,4.364630,-8.981225,125.964218,28.262857
672000,-7.216124,-0.766145,4.276044,-8.019393,123.658875,28.232323
676000,-7.223307,-0.732626,4.314352,-6.263667,123.521477,28.522398
680000,-7.441179,-0.672771,4.347870,-6.904889,118.544373,27.636902
684000,-7.273585,-0.636858,4.237737,-6.553743,116.819183,27.346827
688000,-7.048530,-0.509965,4.414908,-5.943057,118.239029,27.804842
692000,-7.067683,-0.500388,4.175488,-6.294202,120.223763,27.606369
696000,-7.094019,-0.423774,3.988740,-7.408706,121.857353,27.621635
700000,-7.065289,-0.347159,3.792415,-8.721683,122.376434,27.484230
704000,-7.019799,-0.289698,3.790021,-10.187331,123.490936,27.270491
708000,-7.015011,-0.284910,3.744531,-11.439240,126.788651,27.499498
712000,-7.029376,-0.251391,3.821146,-12.813285,129.735199,27.896444
716000,-7.089231,-0.251391,3.816358,-14.538476,132.086349,27.407894
720000,-7.218518,-0.227449,3.639187,-15.683515,133.231384,27.606369
724000,-7.065289,-0.088585,3.799598,-17.576643,132.727570,26.094917
728000,-7.287950,-0.155623,3.794810,-18.416338,138.162689,27.087284
732000,-7.594408,-0.220267,3.933673,-17.011759,136.177948,27.759041
736000,-7.369353,-0.284910,4.328717,-15.576644,134.239029,27.377361
740000,-7.161057,-0.320823,4.414908,-13.973592,136.819183,27.468964
744000,-7.216124,-0.270545,4.158728,-13.194964,141.765747,27.453697
748000,-7.455544,-0.356736,3.787627,-9.805653,145.796280,28.155987
752000,-7.841011,-0.169988,3.459621,-10.660614,138.193222,26.110186
756000,-7.912837,-0.217872,3.100491,-8.462141,133.048187,24.980413
760000,-7.953538,-0.270545,2.856283,-5.714049,130.788635,24.720873
764000,-8.169016,-0.150835,2.657564,-4.263667,126.849716,23.621635
768000,-8.137892,-0.165200,2.375048,-2.904888,120.101624,21.667437
772000,-8.171411,-0.186748,2.511518,-0.721682,113.613075,20.125452
776000,-7.936779,-0.229843,2.904167,2.087478,109.353539,18.232323
780000,-7.716512,-0.325611,3.184288,5.705799,112.941322,18.644537
784000,-8.267179,-0.122104,2.671929,6.285951,102.483307,15.056749
788000,-7.742848,-0.122104,2.391808,8.942440,102.895523,15.423162
792000,-7.922413,0.055067,2.461239,7.766867,103.170326,14.262856
796000,-7.989451,0.004788,2.200271,6.255417,100.910789,14.171253
800000,-7.584831,0.045490,2.315193,4.759233,105.964218,14.400260
804000,-7.560889,0.105345,1.920150,2.301218,110.712311,13.911711
808000,-7.884106,0.244209,1.525106,-1.118629,115.017654,14.690337
812000,-8.025364,0.138864,1.189918,-3.897255,117.216133,15.239955
816000,-8.015787,0.265756,1.168370,-7.378171,121.643608,16.552933
820000,-7.757214,0.162806,1.412579,-9.729317,135.811539,20.079651
824000,-8.226477,0.383072,1.168370,-15.637713,132.605438,19.697971
828000,-7.903260,0.246603,0.921768,-21.088095,132.483292,20.583467
832000,-7.951144,0.136469,0.893037,-23.454506,142.529099,22.537666
836000,-8.291121,0.129287,0.696713,-25.347635,146.437500,22.705605
840000,-8.456321,0.086191,0.423774,-25.011759,146.529099,23.087284
844000,-8.772355,0.002394,0.167594,-26.431606,144.544373,22.171253
848000,-9.028535,-0.052672,-0.090980,-25.317102,141.384064,22.217054
852000,-9.349358,-0.181959,0.220267,-24.843819,135.933685,21.163620
856000,-9.540894,-0.347159,0.225055,-23.164431,128.208496,21.407894
860000,-9.478644,-0.397437,0.620098,-21.027025,125.155060,21.514765
864000,-9.490616,-0.445322,0.644040,-18.263666,119.689415,21.911713
868000,-9.337387,-0.304064,0.723049,-17.698780,111.857353,20.904078
872000,-8.913613,-0.237026,0.720655,-17.149162,109.750481,21.667437
876000,-8.362947,-0.069432,0.943315,-16.859087,115.216133,22.262857
880000,-8.224083,0.062249,0.732626,-17.118628,119.246666,22.247589
884000,-8.271967,0.167594,0.533907,-17.607178,121.109261,21.133085
888000,-8.355764,0.308852,0.229843,-18.156796,119.826820,20.308659
892000,-8.125920,0.454898,0.217872,-20.416338,122.101624,20.339193
896000,-7.623138,0.445322,0.521936,-22.126263,132.483292,20.949881
900000,-7.618350,0.536301,0.356736,-25.408705,141.704666,21.530033
904000,-7.613562,0.579397,0.179565,-28.813286,151.093979,21.850643
908000,-7.611167,0.605733,0.076614,-32.110996,160.651230,22.308659
912000,-7.716512,0.560243,-0.158017,-34.278934,169.231384,22.201788
916000,-7.766790,0.519542,-0.122104,-35.943054,176.452759,21.804842
920000,-8.094796,0.651223,-0.318429,-37.454506,176.559631,18.720873
924000,-8.693346,0.198719,-0.651223,-36.614811,176.513840,19.697971
928000,-8.540117,0.134075,-1.525106,-32.645348,176.788635,20.323925
932000,-9.744401,0.062249,-0.533907,-34.294201,156.284821,16.491865
936000,-9.287108,-0.203507,0.136469,-24.538475,150.468033,15.362092
940000,-9.572019,-0.141258,-0.347159,-16.538475,145.842072,14.323924
944000,-10.213664,-0.088585,-1.199495,-7.851454,135.200851,14.369726
948000,-10.510546,0.028730,-1.991976,-2.798018,120.345901,12.843008
952000,-10.254366,0.059855,-1.956063,-0.920156,110.620712,12.659802
956000,-10.287885,0.095768,-2.173935,-0.324736,96.803917,11.423162
960000,-9.713276,-0.067038,-1.817199,0.866104,98.300102,13.530031
964000,-9.636662,0.105345,-1.778892,0.362287,98.926056,14.064383
968000,-9.327810,0.239420,-2.226608,-0.965957,98.681778,15.392627
972000,-9.047688,0.351948,-2.439692,-3.469774,100.803917,17.148354
976000,-8.839393,0.792481,-2.535460,-7.881988,104.773384,18.232323
980000,-8.178593,0.761356,-2.355895,-14.233132,112.330635,19.102551
984000,-7.963115,0.689530,-2.439692,-18.645346,122.406967,19.407894
988000,-8.164227,0.768539,-2.817975,-21.515575,128.590164,19.301025
992000,-8.327033,0.766145,-3.014300,-22.599545,129.964218,18.262857
996000,-8.516175,0.778116,-3.040636,-23.622444,129.292465,17.301025
1000000,-8.458714,0.620098,-2.566584,-24.172064,129.765747,16.858276
1004000,-8.140285,0.466869,-2.123657,-23.027025,133.307724,16.064383
1008000,-8.327033,0.423774,-2.044648,-21.393438,136.605438,15.102551
1012000,-8.552089,0.373495,-2.157176,-20.187330,136.590164,14.003314
1016000,-8.681376,0.351948,-2.336741,-19.256033,134.376434,12.751406
1020000,-8.750807,0.378284,-2.312799,-18.782751,132.987122,11.774306
1024000,-8.451532,0.328006,-1.970428,-18.340002,134.376434,11.148352
1028000,-8.511387,0.268151,-1.970428,-17.561377,138.605438,10.491863
1032000,-8.791509,0.325611,-2.408567,-16.752216,140.864975,9.942245
1036000,-9.167398,0.385466,-3.004723,-15.454507,139.216125,8.873543
1040000,-9.703699,0.347159,-3.452439,-12.920156,133.384064,7.988047
1044000,-10.036493,0.342371,-3.983952,-10.904889,123.857353,6.705605
1048000,-10.374076,0.244209,-4.302381,-9.408706,112.956589,5.804841
1052000,-10.596737,0.126893,-4.448427,-7.118629,101.750481,4.797207
1056000,-10.752359,0.009577,-4.194642,-4.798018,89.826820,5.026215
1060000,-10.656591,0.031125,-4.177882,-2.569010,79.063461,5.530032
1064000,-10.462662,0.052672,-4.197036,-1.057560,73.048195,6.934612
1068000,-10.345345,-0.081403,-4.431667,0.347020,67.857353,8.537665
1072000,-10.151415,0.313640,-4.276044,0.347020,59.261929,7.789574
1076000,-9.998186,0.433351,-4.680665,-0.401072,48.376431,7.774307
1080000,-9.220071,0.672771,-4.544195,-1.408705,50.223759,9.942245
1084000,-8.746018,0.826000,-4.376601,-4.706415,51.552006,9.942245
1088000,-8.027759,1.000776,-4.378995,-8.095729,58.025288,10.293390
1092000,-7.867347,1.201889,-4.668694,-11.393438,66.574905,10.354459
1096000,-8.030152,1.357512,-5.193024,-14.675881,69.765747,9.743772
1100000,-7.955932,1.379060,-5.540183,-18.370537,76.162697,9.270490
1104000,-8.339005,1.426944,-5.906496,-21.500307,71.536743,7.255223
1108000,-8.444349,1.247379,-5.559336,-24.202599,70.132164,6.369727
1112000,-8.702923,0.995988,-5.379771,-24.752216,69.048195,6.064383
1116000,-8.956709,0.950498,-5.090073,-24.141529,65.597809,4.949879
1120000,-9.088389,0.770933,-5.092467,-22.675880,55.429867,2.980413
1124000,-9.047688,0.658405,-4.776433,-18.569010,57.368797,3.072016
1128000,-9.732430,0.596156,-5.125986,-16.477407,47.139790,1.087284
1132000,-9.722853,0.476446,-5.123591,-12.843820,38.620705,0.201787
1136000,-9.794679,0.280122,-5.099649,-9.057561,31.521469,-0.653174
1140000,-9.900024,0.114922,-4.898537,-4.996491,24.971851,-0.836380
1144000,-9.832987,0.050278,-4.663905,-0.889621,18.574905,-1.660808
1148000,-10.031705,0.064643,-4.769250,1.950073,9.384066,-2.668442
1152000,-10.012551,0.124498,-4.865018,5.018775,3.032921,-2.744777
1156000,-10.117896,0.181959,-4.917690,7.125646,-7.379293,-3.798213
1160000,-9.991004,0.258574,-4.872200,8.866104,-17.806774,-4.698976
1164000,-9.739613,0.407014,-4.939238,9.904272,-23.012880,-4.347831
1168000,-9.236830,0.639252,-4.668694,8.576028,-25.333492,-4.286762
1172000,-8.827422,0.732626,-4.479551,6.469157,-22.173187,-3.431800
1176000,-8.492233,0.816423,-4.414908,3.675264,-14.692270,-2.363098
1180000,-8.516175,0.919373,-4.534618,0.743966,-7.073949,-2.011953
1184000,-8.638280,0.957681,-4.905719,-2.126262,-1.913644,-1.737144
1188000,-8.930372,0.885855,-5.003881,-5.042294,0.849715,-1.752411
1192000,-9.071630,0.900220,-5.142745,-8.309469,2.742844,-0.790579
1196000,-9.059659,0.845153,-5.030218,-9.958323,6.605440,0.568200
1200000,-9.476251,0.751779,-4.941632,-13.591912,2.071089,0.354459
1204000,-9.114726,0.636858,-4.635174,-13.775117,7.964219,2.217055
1208000,-9.232041,0.653617,-4.537012,-14.263667,9.765745,2.690337
1212000,-9.284714,0.632069,-4.606444,-14.156796,9.948951,3.087284
1216000,-9.270349,0.464475,-4.790798,-12.843820,10.055821,3.713238
1220000,-9.418790,0.490811,-4.644751,-13.332370,4.666509,2.873543
1224000,-9.279925,0.471658,-4.259285,-11.271301,3.414600,3.239955
1228000,-9.126697,0.368707,-3.981557,-8.599545,0.635974,2.476597
1232000,-9.169792,0.277727,-4.098873,-6.340003,-7.165553,1.270490
1236000,-8.944737,0.306458,-3.833117,-3.378171,-8.829675,0.919345
1240000,-8.923190,0.433351,-3.699042,-1.820919,-13.348759,-0.271495
1244000,-8.743625,0.361524,-3.694253,0.194348,-15.730438,-1.095922
1248000,-8.568848,0.387861,-3.514688,2.453890,-16.280056,-1.996686
1252000,-8.688558,0.457293,-3.694253,3.904272,-16.463263,-2.469968
1256000,-8.959103,0.481235,-3.892972,4.698165,-18.341125,-2.989052
1260000,-8.815451,0.438139,-3.974375,4.682898,-16.081583,-2.195159
1264000,-9.033323,0.507571,-3.945644,4.392821,-15.959446,-2.073022
1268000,-8.927979,0.543484,-3.988740,4.285951,-15.272423,-2.057755
1272000,-8.983045,0.577003,-3.971981,4.102745,-14.188454,-1.767678
1276000,-8.863335,0.521936,-3.806781,4.484425,-11.776240,-1.599739
1280000,-8.913613,0.553061,-3.830723,4.881371,-9.073950,-1.095922
1284000,-8.987833,0.569820,-3.833117,4.881371,-7.852575,-0.744777
1288000,-9.160215,0.469264,-4.024653,4.392821,-8.768606,-0.302029
1292000,-9.220071,0.509965,-4.110844,3.644730,-9.745706,0.140719
1296000,-9.244013,0.541090,-4.259285,3.858470,-11.012881,0.965146
1300000,-9.059659,0.598550,-4.259285,3.110379,-12.127385,1.346826
1304000,-8.908825,0.727837,-4.170700,2.438623,-12.417461,1.697971
1308000,-8.750807,0.751779,-4.335899,1.797401,-11.654102,2.171253
1312000,-8.552089,0.835576,-4.534618,0.805035,-11.394561,1.820108
1316000,-8.487445,0.888249,-4.690241,-0.859087,-11.822042,1.499497
1320000,-8.384495,0.948104,-4.687847,-3.836186,-10.615934,1.774307
1324000,-7.977480,0.931344,-4.209007,-7.210233,-5.531965,2.522398
1328000,-7.393295,1.000776,-3.739743,-10.217866,5.582539,3.133085
1332000,-7.340622,1.034295,-3.711013,-13.759851,19.170324,3.545299
1336000,-7.721301,1.022324,-4.000711,-17.530842,26.773378,3.087284
1340000,-8.058883,1.005565,-4.390966,-20.798018,29.338264,2.369726
1344000,-8.149862,0.854730,-4.400543,-22.172064,29.322996,1.117818
1348000,-8.585608,0.689530,-4.000711,-22.355270,28.376432,-0.332564
1352000,-8.911219,0.435745,-3.756502,-21.011759,26.040554,-0.882182
1356000,-9.267955,0.246603,-3.684676,-18.798018,21.521469,-1.584472
1360000,-9.454702,0.124498,-3.620033,-16.859087,14.941318,-1.859281
1364000,-9.524135,0.050278,-3.430891,-13.943057,8.437500,-2.225693
1368000,-9.591172,-0.019154,-3.347094,-10.920156,3.017654,-2.805846
1372000,-9.655815,0.002394,-3.447650,-7.698782,-3.394560,-3.141724
1376000,-9.646238,0.026336,-3.521871,-4.920156,-9.226622,-3.385999
1380000,-9.564836,0.100556,-3.734955,-2.706415,-14.280057,-3.416533
1384000,-9.521740,0.117316,-3.715801,-0.736950,-18.753340,-3.798213
1388000,-9.272743,0.141258,-3.770868,1.293585,-22.218988,-3.905083
1392000,-9.277532,0.196325,-3.636792,2.713432,-24.402195,-3.874548
1396000,-9.387665,0.239420,-3.775656,4.102745,-26.997614,-3.920350
1400000,-9.425972,0.260968,-3.897760,5.415722,-29.776239,-3.935617
1404000,-9.370906,0.239420,-3.873818,7.308852,-32.799141,-3.691342
1408000,-9.255983,0.246603,-3.701436,8.682898,-34.142651,-3.416533
1412000,-8.942344,0.316035,-3.529053,8.713432,-32.509064,-2.454701
1416000,-8.475474,0.445322,-3.323152,7.705798,-27.028149,-1.615006
1420000,-8.164227,0.486023,-3.179500,6.514959,-17.654102,-0.500503
1424000,-8.070854,0.648829,-3.373430,4.988241,-8.127385,0.705604
1428000,-8.219295,0.708684,-3.751714,3.156180,-1.180820,1.041482
1432000,-8.389283,0.835576,-4.204218,0.591295,2.803913,1.362093
1436000,-8.362947,0.837971,-4.304775,-1.561377,6.300097,1.377360
1440000,-8.489840,0.737414,-4.299986,-2.981224,9.261928,1.285757
1444000,-8.774749,0.644040,-4.285621,-4.034659,9.979486,1.423162
1448000,-8.973468,0.517148,-4.197036,-4.675881,9.658875,1.255223
1452000,-8.856153,0.471658,-4.122815,-4.935423,8.284829,1.377360
1456000,-8.848969,0.450110,-4.065354,-4.782751,7.124524,1.239955
1460000,-8.846576,0.478840,-3.995923,-4.340003,7.048188,1.133085
1464000,-8.906430,0.452504,-4.280833,-3.881988,6.071089,1.209421
1468000,-8.999804,0.411803,-4.050989,-2.798018,2.727577,0.812474
1472000,-8.870518,0.416591,-3.790021,-0.538476,-1.394560,-0.088289
1476000,-8.779537,0.316035,-3.466804,2.209615,-4.386927,-0.821113
1480000,-8.676587,0.342371,-3.354277,4.652363,-7.196087,-2.164625
1484000,-8.789114,0.344765,-3.418920,6.728699,-10.631202,-3.034854
1488000,-8.829816,0.395043,-3.390190,8.545493,-14.585401,-3.782945
1492000,-8.872911,0.390255,-3.512294,9.659997,-17.501431,-4.744777
1496000,-8.937555,0.562637,-3.768473,10.530226,-20.081583,-5.263861
1500000,-9.066842,0.550666,-3.921702,10.331753,-22.631203,-5.645541
1504000,-9.030929,0.660800,-3.960010,9.263050,-23.516699,-5.202793
1508000,-8.839393,0.782904,-4.010288,7.247783,-22.783875,-4.805846
1512000,-8.643068,0.761356,-4.249708,4.896638,-19.944180,-4.271495
1516000,-8.580819,0.799663,-4.039018,2.285951,-16.020514,-3.935617
1520000,-8.544906,0.768539,-4.094085,0.469157,-11.837309,-3.645541
1524000,-8.714894,0.725443,-4.151546,-1.622446,-8.692270,-3.676075
1528000,-8.803479,0.667982,-4.079720,-3.164430,-6.661736,-3.218060
1532000,-8.911219,0.617704,-3.801992,-4.187331,-5.608301,-2.943251
1536000,-8.875306,0.452504,-3.684676,-4.065194,-4.188453,-2.637907
1540000,-8.937555,0.423774,-3.509900,-3.775118,-2.203721,-2.164625
1544000,-9.186552,0.363919,-3.507505,-3.210232,-1.058682,-1.981419
1548000,-9.409213,0.421380,-3.804387,-2.630080,-2.341125,-1.645541
1552000,-9.375694,0.442927,-4.079720,-2.401072,-4.524331,-1.447067
1556000,-9.332599,0.395043,-4.005499,-1.973591,-5.989980,-1.523403
1560000,-9.339781,0.414197,-4.039018,-1.607178,-5.852575,-0.851648
1564000,-9.284714,0.471658,-4.177882,-1.698782,-5.822041,-0.210426
1568000,-9.153033,0.577003,-4.098873,-2.538476,-5.272423,0.033849
1572000,-9.040505,0.574608,-4.000711,-3.591912,-4.570133,0.125452
1576000,-8.959103,0.531513,-4.003105,-3.683514,-2.631201,0.155986
1580000,-8.947132,0.483629,-4.067749,-3.897255,-1.028148,0.018581
1584000,-9.047688,0.478840,-4.007894,-4.110995,-1.241889,-0.744777
1588000,-9.141062,0.392649,-3.974375,-4.049927,-2.753339,-0.821113
1592000,-9.160215,0.342371,-3.653552,-3.362904,-3.852576,-0.729510
1596000,-9.047688,0.332794,-3.632004,-2.187331,-4.005247,-0.775312
1600000,-9.131485,0.234632,-3.612850,-0.584278,-4.386927,-0.821113
1604000,-9.186552,0.359130,-3.675100,0.056943,-5.425095,-0.989052
1608000,-9.255983,0.342371,-3.763685,0.499691,-6.463263,-0.851648
1612000,-9.236830,0.416591,-3.768473,0.560760,-7.623568,-0.424167
1616000,-9.208099,0.402226,-3.816358,0.972974,-7.867843,-0.439434
1620000,-9.133880,0.411803,-3.749320,1.385188,-8.096850,-0.271495
1624000,-9.047688,0.438139,-3.713407,2.011142,-8.478530,0.217055
1628000,-8.927979,0.524330,-3.849876,2.530226,-8.906011,-0.668442
1632000,-8.999804,0.519542,-3.648763,3.308852,-10.906011,-1.233327
1636000,-9.002198,0.476446,-3.533842,3.858470,-12.799141,-1.569205
1640000,-9.002198,0.641646,-3.663129,3.995875,-12.417461,-1.447067
1644000,-8.990228,0.598550,-3.928885,3.843203,-14.478530,-1.553938
1648000,-8.937555,0.567426,-3.756502,3.827936,-16.371660,-2.240961
1652000,-8.829816,0.562637,-3.667917,3.476791,-15.440362,-2.057755
1656000,-8.808268,0.641646,-3.758897,2.423356,-14.402194,-1.370732
1660000,-8.520964,0.723049,-3.648763,1.049310,-12.142653,-1.187526
1664000,-8.331821,0.730232,-3.478775,-1.149163,-6.982347,-0.851648
1668000,-8.317456,0.785298,-3.497929,-3.011759,-1.196087,-0.454701
1672000,-8.446744,0.756568,-3.684676,-4.828553,2.666508,-0.393632
1676000,-8.633492,0.806846,-4.067749,-5.744583,3.185592,-0.821113
1680000,-8.805874,0.711078,-3.960010,-6.202599,1.948951,-1.569205
1684000,-8.968679,0.612916,-3.888184,-6.172065,0.391699,-2.027220
1688000,-9.052477,0.581791,-3.677494,-5.362904,-1.165553,-1.996686
1692000,-9.064447,0.457293,-3.361459,-4.569011,-1.913644,-2.088289
1696000,-8.980651,0.366313,-3.193865,-2.874354,-1.623568,-1.966151
1700000,-9.045294,0.356736,-3.208230,-1.775118,-1.806774,-2.576838
1704000,-9.179369,0.368707,-3.263297,-0.660614,-2.417461,-2.515770
1708000,-9.232041,0.404620,-3.531447,0.011142,-3.119751,-2.485235
1712000,-9.258378,0.399832,-3.538630,0.316485,-3.974713,-2.714243
1716000,-9.399636,0.395043,-3.627216,0.637096,-5.974713,-2.546304
1720000,-9.339781,0.342371,-3.694253,0.942440,-7.898377,-2.714243
1724000,-9.373300,0.421380,-3.809175,1.003508,-9.928912,-2.332564
1728000,-9.291897,0.361524,-3.840300,0.377554,-11.455629,-2.011953
1732000,-9.112331,0.462081,-3.830723,-0.446873,-11.516698,-1.935617
1736000,-8.978256,0.418985,-3.675100,-1.714049,-10.509065,-1.523403
1740000,-8.925584,0.428562,-3.411737,-2.294202,-7.852575,-1.126457
1744000,-8.985439,0.356736,-3.392584,-2.370538,-4.768606,-0.714243
1748000,-9.090784,0.409408,-3.347094,-2.477408,-3.394560,-0.347831
1752000,-9.193734,0.325611,-3.507505,-2.736950,-4.157919,-0.042487
1756000,-9.121908,0.392649,-3.469198,-3.103362,-4.707537,0.278123
1760000,-8.951921,0.402226,-3.275268,-3.790385,-2.677003,1.362093
1764000,-8.750807,0.478840,-3.227384,-4.477407,0.727577,1.865910
1768000,-8.631097,0.519542,-3.244143,-5.500309,4.635974,1.850642
1772000,-8.671799,0.462081,-3.315969,-5.729317,7.857348,2.354459
1776000,-8.789114,0.390255,-3.244143,-4.950690,9.063455,2.079650
1780000,-8.911219,0.402226,-3.550601,-4.309469,8.803913,1.682703
1784000,-9.002198,0.418985,-3.620033,-3.118629,7.704676,1.316291
1788000,-9.121908,0.328006,-3.550601,-1.836186,5.765745,0.919345
1792000,-8.985439,0.184354,-3.224990,-0.095728,5.185593,1.224688
1796000,-8.798691,0.193930,-3.189077,1.934806,6.849715,1.239955
1800000,-8.918402,0.316035,-3.380613,3.324119,7.521471,0.919345
1804000,-9.124303,0.347159,-3.689465,3.751600,6.605440,0.644536
1808000,-9.196129,0.407014,-3.943250,3.629463,4.529104,0.491864
1812000,-9.241618,0.450110,-4.113238,3.705798,2.116890,0.262856
1816000,-9.299079,0.464475,-4.132392,3.766867,-0.814408,-0.088289
1820000,-9.244013,0.418985,-3.979163,3.568394,-2.753339,-0.118823
1824000,-9.188946,0.509965,-3.969586,3.324119,-4.188453,-0.042487
1828000,-9.109938,0.536301,-3.979163,3.278317,-5.333491,-0.286762
1832000,-8.860941,0.569820,-3.991134,2.514959,-6.295323,-0.515770
1836000,-8.832211,0.667982,-3.950433,1.385188,-6.447995,-0.653174
1840000,-8.688558,0.723049,-3.892972,0.194348,-6.234255,-0.760045
1844000,-8.628703,0.641646,-3.749320,-1.393438,-5.577766,-1.172258
1848000,-8.669404,0.622492,-3.732560,-2.904888,-3.623568,-1.202793
1852000,-8.726865,0.617704,-3.768473,-3.775118,-2.554866,-1.218060
1856000,-8.858546,0.569820,-3.749320,-4.660614,-2.356392,-1.141724
1860000,-8.848969,0.500388,-3.545813,-5.118629,-2.493797,-1.279129
1864000,-8.856153,0.435745,-3.433285,-4.843820,-0.906011,-0.866915
1868000,-8.767567,0.392649,-3.251326,-4.507942,0.635974,-0.576838
1872000,-8.714894,0.442927,-3.117251,-4.996491,2.025287,-0.500503
1876000,-8.767567,0.328006,-3.174711,-4.691149,4.391699,0.003314
1880000,-8.920795,0.462081,-3.241749,-4.355270,6.086356,0.064383
1884000,-9.088389,0.450110,-3.476381,-3.820919,5.521471,0.140719
1888000,-9.172187,0.502782,-3.552995,-3.759850,3.918417,-0.042487
1892000,-9.299079,0.433351,-3.469198,-3.668247,2.574905,0.064383
1896000,-9.186552,0.320823,-3.383007,-2.981224,1.658875,-0.103556
1900000,-9.148245,0.351948,-3.354277,-1.943056,0.849715,0.354459
1904000,-8.963891,0.402226,-3.143587,-1.378171,0.926050,0.186520
1908000,-8.829816,0.363919,-3.126827,-0.660614,3.109257,0.400261
1912000,-8.851364,0.378284,-2.992752,-0.538476,5.200860,0.323925
1916000,-8.990228,0.392649,-3.244143,-0.477408,6.468035,0.446062
1920000,-9.165004,0.414197,-3.502717,0.102745,5.994753,0.430795
1924000,-9.200917,0.478840,-3.643975,-0.187331,4.880249,0.461329
1928000,-9.220071,0.488417,-3.634398,-0.278934,3.307730,0.705604
1932000,-9.167398,0.533907,-3.612850,0.194348,2.376432,0.690337
1936000,-9.035717,0.500388,-3.552995,0.743966,1.964218,0.827742
1940000,-9.028535,0.538695,-3.466804,1.064577,1.185592,0.797207
1944000,-8.999804,0.567426,-3.426103,1.537859,0.819180,0.522398
1948000,-8.887277,0.567426,-3.495534,1.782134,0.803913,0.537665
1952000,-8.860941,0.598550,-3.639187,2.102745,0.635974,0.430795
1956000,-8.911219,0.687136,-3.806781,1.598928,0.330631,-0.073022
1960000,-8.944737,0.670376,-3.995923,1.110379,-0.768606,-0.179892
1964000,-8.822633,0.699107,-3.993528,0.453890,-1.974713,-1.034854
1968000,-8.892065,0.737414,-4.103662,0.102745,-2.890743,-1.447067
1972000,-8.872911,0.624887,-3.950433,0.194348,-4.570133,-2.256228
1976000,-8.923190,0.495600,-3.900155,0.560760,-5.913644,-2.637907
1980000,-9.066842,0.414197,-3.778050,0.698165,-7.043415,-2.775312
1984000,-9.088389,0.304064,-3.754108,0.927172,-7.806774,-2.653174
1988000,-9.097966,0.316035,-3.703830,1.263050,-7.837308,-2.317297
1992000,-9.050082,0.339977,-3.811569,1.644730,-7.196087,-2.118823
1996000,-9.071630,0.423774,-4.029441,1.201982,-7.699903,-2.134090
