time_us,ax,ay,az,gx,gy,gz
0,0.854730,0.000000,8.350976,0.072211,3.826814,-1.737144
4000,0.773327,0.043096,8.374918,-0.782751,2.071089,-2.179892
8000,0.782904,0.045490,8.542512,-1.561377,1.093989,-2.103556
12000,0.883460,0.023942,8.590396,-2.019392,2.162692,-1.584472
16000,0.830788,0.007183,8.616732,-2.309469,3.414600,-1.798213
20000,0.766145,-0.031125,8.592790,-2.950690,4.147425,-1.477602
24000,0.835576,0.090980,8.597578,-3.133896,4.406967,-1.599739
28000,0.828394,-0.002394,8.554482,-3.408705,4.315363,-1.782945
32000,0.761356,-0.062249,8.616732,-2.965957,3.063455,-2.103556
36000,0.794875,-0.057461,8.662222,-3.088094,3.933684,-2.179892
40000,0.742203,-0.057461,8.769960,-2.141530,2.208493,-2.225693
44000,0.665588,-0.055067,8.724471,-1.210232,0.162692,-2.683709
48000,0.746991,-0.062249,8.868123,-0.660614,-0.875476,-2.592106
52000,0.739808,-0.114922,8.822633,-0.569010,-0.677003,-2.546304
56000,0.744597,-0.169988,8.887277,-0.660614,0.239028,-2.332564
60000,0.636858,-0.095768,8.808268,-1.057560,0.727577,-1.508136
64000,0.636858,-0.153229,8.877700,-1.423972,1.322997,-0.897449
68000,0.644040,-0.162806,8.908825,-1.698782,3.445134,-0.240961
72000,0.746991,-0.158017,9.028535,-1.546110,6.010020,0.675070
76000,0.720655,-0.086191,9.045294,-1.362904,8.055821,0.904078
80000,0.768539,-0.146046,8.975863,-1.744583,9.628340,1.407894
84000,0.739808,-0.131681,8.868123,-1.744583,10.544371,1.606368
88000,0.787692,-0.184354,9.026140,-1.607178,10.971851,2.064383
92000,0.778116,-0.198719,9.327810,-0.965957,11.277195,2.339192
96000,0.916979,-0.153229,9.327810,-0.217866,12.071088,1.957513
100000,0.912191,-0.167594,9.306262,0.408088,13.002386,2.049116
104000,0.960075,-0.160412,9.224859,1.034043,13.613073,1.514765
108000,1.012747,-0.110133,9.090784,1.232516,14.452767,1.072016
112000,1.012747,-0.136469,9.069236,1.950073,14.437500,0.369726
116000,1.010353,-0.107739,9.014170,2.805035,14.071088,-0.240961
120000,0.893037,-0.184354,9.033323,3.263050,13.185592,-1.050121
124000,0.797269,-0.162806,8.911219,3.140913,12.605439,-1.385999
128000,0.802058,-0.143652,8.693346,2.453890,12.513836,-1.309663
132000,0.773327,-0.162806,8.820239,1.904272,13.032920,-1.279129
136000,0.749385,-0.193930,8.932767,1.171447,14.468035,-0.500503
140000,0.706290,-0.146046,8.789114,0.255417,16.330629,0.033849
144000,0.675165,-0.165200,8.851364,-0.538476,18.071089,0.736139
148000,0.713472,-0.102951,9.074024,-0.859087,19.857347,1.407894
152000,0.780510,-0.184354,9.215282,-0.950690,22.910784,2.308658
156000,0.849942,-0.131681,9.425972,-0.920156,26.101622,2.995681
160000,0.840365,-0.172383,9.481039,-0.782751,29.628340,3.606368
164000,0.847547,-0.191536,9.555259,-0.370538,32.697041,4.476597
168000,0.837971,-0.119710,9.339781,-0.309469,35.567272,5.056749
172000,0.826000,-0.129287,9.425972,-0.202598,38.452766,5.896444
176000,0.859518,-0.138864,9.272743,-0.843820,41.063454,6.415528
180000,0.833182,-0.088585,9.399636,-1.332370,45.048187,7.362093
184000,0.816423,-0.062249,9.224859,-1.943056,49.842079,8.430795
188000,0.830788,-0.033519,9.153033,-3.194965,54.422234,9.407894
192000,0.802058,0.016759,9.090784,-4.584278,59.292461,10.766672
196000,0.842759,-0.007183,8.918402,-6.691149,64.971855,12.308658
200000,0.802058,-0.016759,8.779537,-8.904889,71.109261,13.865910
204000,0.809240,0.069432,8.753201,-11.042294,76.742851,15.346826
208000,0.814029,0.023942,8.767567,-13.072827,81.842087,16.278124
212000,1.034295,-0.138864,9.126697,-13.423972,88.116890,17.301025
216000,0.960075,-0.102951,9.203311,-14.278935,91.185593,17.407894
220000,1.065420,-0.052672,9.172187,-14.294202,95.032921,17.285757
224000,0.888249,-0.088585,9.263166,-15.454507,98.116890,17.377361
228000,0.835576,-0.165200,9.631873,-15.775117,102.315369,17.484230
232000,0.811634,-0.399832,9.888053,-15.103362,107.964218,17.850643
236000,0.689530,-0.354342,9.947908,-14.019393,114.254295,18.461330
240000,0.529119,-0.328006,9.655815,-13.759851,119.338264,19.362093
244000,0.450110,-0.332794,9.418790,-14.034659,123.170326,20.049116
248000,0.426168,-0.268151,9.504981,-14.660613,125.719948,20.354460
252000,0.627281,-0.335188,9.732430,-14.965957,131.048187,20.705605
256000,0.782904,-0.351948,10.026917,-14.645347,139.078720,20.720873
260000,0.943315,-0.366313,10.366894,-13.744584,147.521469,20.278124
264000,1.024718,-0.332794,10.711658,-12.767484,157.933685,19.881178
268000,1.273715,-0.490811,11.449073,-10.538477,169.322998,19.453697
272000,0.351948,-0.459687,10.421960,-4.110995,182.422226,19.988047
276000,-0.134075,-0.466869,9.710882,-5.439240,186.483292,20.171253
280000,-0.411803,-0.545878,9.435549,-6.767485,190.574905,20.888811
284000,-0.627281,-0.526724,9.504981,-8.233133,195.185593,22.094917
288000,-0.897826,-0.591368,9.339781,-8.965958,200.697037,23.606369
292000,-1.130063,-0.608127,9.220071,-10.416339,205.689407,25.835377
296000,-1.158794,-0.572214,9.232041,-12.187331,213.384064,28.262857
300000,-1.084573,-0.581791,8.992621,-14.309468,223.964218,30.797209
304000,-0.984017,-0.541090,8.939949,-15.836186,235.674133,32.659801
308000,-1.541866,-0.383072,8.638280,-17.714048,242.315353,34.018581
312000,-1.355118,-0.263362,8.664616,-18.736948,249.216125,35.239956
316000,-1.383849,-0.426168,8.645462,-19.194963,252.605438,35.255222
320000,-1.527501,-0.277727,8.647857,-18.920155,257.872620,34.736137
324000,-1.716643,-0.270545,8.523358,-17.805651,259.185608,34.079651
328000,-1.728614,-0.332794,8.508993,-16.446873,258.193237,32.629269
332000,-1.963245,-0.359130,8.422802,-15.317103,254.971848,30.552933
336000,-1.948880,-0.277727,8.602366,-13.194964,252.788635,29.133085
340000,-2.188300,-0.375890,8.779537,-10.385805,249.964218,27.178886
344000,-2.293645,-0.356736,8.841787,-7.072827,244.941315,24.873545
348000,-2.353500,-0.440533,8.995016,-2.065194,242.773376,23.377361
352000,-2.451663,-0.440533,8.985439,3.278317,239.445129,21.072018
356000,-2.537854,-0.462081,8.990228,7.873737,236.910782,19.056749
360000,-2.796427,-0.454898,8.760384,10.789768,233.170319,17.010948
364000,-3.150769,-0.375890,8.362947,12.209615,232.071091,16.583467
368000,-3.318364,-0.397437,8.094796,12.026409,234.086349,17.056749
372000,-3.483563,-0.354342,7.860164,9.537860,235.536728,17.865910
376000,-3.224990,-0.383072,7.642292,6.591295,241.429871,19.438429
380000,-2.966416,-0.205901,7.510611,2.713432,254.742844,21.957514
384000,-3.016694,-0.081403,7.132327,-2.294202,268.010040,23.774307
388000,-3.126827,0.031125,6.667852,-7.775118,281.582550,25.621635
392000,-3.263297,0.114922,6.129156,-13.317103,293.445160,27.301025
396000,-3.746926,0.131681,5.702989,-18.553743,301.842102,28.461330
400000,-4.113238,0.203507,5.329493,-23.072826,305.872620,29.117819
404000,-4.386178,0.169988,5.240908,-26.065193,308.544373,29.682705
408000,-4.558560,0.114922,4.860229,-27.393438,311.750488,30.644537
412000,-4.929661,0.071826,4.299986,-30.034660,311.475677,30.110186
416000,-5.128380,0.253785,4.467580,-29.790382,311.506226,30.415529
420000,-5.827487,0.059855,4.496311,-29.591911,306.620728,30.507132
424000,-5.985504,-0.134075,4.881777,-27.347635,298.376434,30.155987
428000,-6.112397,-0.215478,5.382165,-23.988857,290.391724,30.537666
432000,-5.796362,-0.301669,5.868188,-21.332369,289.139801,30.568201
436000,-5.712565,-0.356736,5.784391,-19.164431,290.315369,31.301025
440000,-5.908890,-0.196325,5.166687,-18.034658,294.330627,31.820110
444000,-5.875371,-0.110133,4.568137,-17.927788,300.330627,33.102551
448000,-5.889736,-0.098162,4.053383,-20.446873,308.269562,35.850643
452000,-6.117185,0.181959,3.811569,-23.668247,314.315369,36.461330
456000,-6.189012,0.169988,3.294421,-27.622444,320.956604,38.583466
460000,-6.009446,0.442927,2.987964,-31.118629,333.582550,41.759041
464000,-6.306327,0.423774,2.126051,-36.904888,338.987122,43.545300
468000,-6.241684,0.588974,1.376666,-42.156796,346.590179,44.873543
472000,-6.710948,0.878672,0.591368,-50.492676,347.536743,44.446064
476000,-7.089231,0.754174,0.265756,-53.866718,352.208496,46.614002
480000,-7.445967,0.737414,0.117316,-58.614811,351.017670,47.346825
484000,-7.728483,0.574608,0.189142,-61.714050,348.345917,48.507130
488000,-7.472303,0.284910,0.732626,-61.943054,353.216125,50.018581
492000,-8.135497,0.354342,0.689530,-65.103363,346.468048,52.843010
496000,-7.682993,0.169988,1.211466,-66.355270,350.193237,54.827744
500000,-7.489063,0.000000,1.680730,-68.630081,355.353546,55.636902
504000,-7.699753,-0.102951,1.604115,-68.019394,358.788666,58.293392
508000,-8.030152,-0.074220,1.273715,-65.500305,362.758118,60.079651
512000,-8.209718,0.026336,0.773327,-65.912521,358.788666,60.659801
516000,-7.783550,0.067038,0.526724,-65.805649,360.315369,63.163620
520000,-7.848193,0.203507,0.462081,-69.286568,361.124542,62.614002
524000,-7.623138,0.239420,0.375890,-69.500305,365.735229,63.850639
528000,-7.790732,0.244209,-0.296881,-68.645348,368.529114,64.552933
532000,-7.924808,0.308852,-1.012747,-65.042290,367.261932,64.720871
536000,-8.384495,0.435745,-1.814805,-62.355270,356.758118,62.415527
540000,-8.602366,0.514753,-2.449268,-58.752216,346.177979,60.308659
544000,-8.827422,0.517148,-2.834735,-53.301834,332.574921,58.125454
548000,-9.112331,0.452504,-2.873042,-47.591911,321.414612,57.239956
552000,-9.519346,0.505177,-3.074155,-43.530842,301.124542,54.690338
556000,-9.184157,0.555455,-2.978387,-38.538475,287.643616,53.270489
560000,-8.762778,0.636858,-2.889802,-34.584278,280.987122,52.430798
564000,-8.611943,0.751779,-3.272874,-32.553741,275.536743,51.102551
568000,-8.528147,0.842759,-3.593697,-30.950691,272.498566,50.186520
572000,-8.683769,1.053449,-4.350265,-29.759850,268.926056,49.575832
576000,-8.798691,1.120486,-4.934450,-29.943054,263.567291,49.163620
580000,-8.920795,1.233014,-5.580884,-30.874355,256.574921,47.743774
584000,-9.241618,1.371878,-6.136339,-31.515575,248.071091,46.705605
588000,-9.629479,1.422156,-6.691794,-31.744583,235.628342,45.820110
592000,-9.785102,1.438915,-7.000646,-31.240765,220.483292,44.308659
596000,-9.789890,1.436521,-6.998251,-30.324734,204.849716,43.056751
600000,-9.742006,1.407791,-7.137115,-29.317101,191.613068,41.545300
604000,-9.526528,1.237802,-6.907272,-28.691147,179.078720,40.781940
608000,-9.114726,1.302446,-6.536170,-28.920155,169.796280,39.530033
612000,-8.801085,1.189918,-6.133945,-28.843819,165.597809,39.010948
616000,-9.035717,1.285686,-6.064513,-31.943054,155.719940,36.934612
620000,-8.674192,1.271321,-5.851429,-32.141529,153.429871,36.323925
624000,-8.815451,1.292869,-6.114791,-31.866718,147.826813,35.209423
628000,-8.734048,1.319205,-6.098032,-32.767483,140.987122,33.484230
632000,-8.748413,1.288081,-6.193800,-34.110996,133.964218,31.774307
636000,-8.676587,1.340753,-6.203377,-35.011757,128.742844,30.644537
640000,-8.456321,1.352724,-5.810728,-36.446873,124.422234,30.033850
644000,-8.109161,1.364695,-5.609614,-37.332367,124.468040,28.888811
648000,-8.020576,1.381454,-5.465962,-37.485039,126.452774,27.835377
652000,-8.346188,1.438915,-5.600038,-36.187332,125.093994,26.507132
656000,-8.434772,1.393425,-5.726931,-34.217865,120.010025,24.446062
660000,-8.489840,1.458069,-5.640739,-31.149162,115.002388,22.904078
664000,-8.772355,1.338359,-5.662287,-27.164431,109.048195,21.545300
668000,-8.980651,1.276109,-5.793968,-23.591911,100.971855,20.125452
672000,-9.174581,1.288081,-6.009446,-19.301834,90.223763,18.690338
676000,-9.212888,1.364695,-6.030994,-15.515576,83.139793,18.049116
680000,-9.145850,1.424550,-6.040571,-10.752217,80.498573,19.377361
684000,-9.478644,1.563414,-6.344635,-9.561378,65.170326,16.980413
688000,-9.174581,1.513135,-6.754043,-7.164431,58.864983,17.652170
692000,-8.954314,1.678335,-6.567295,-4.263667,58.177959,18.003315
696000,-9.107543,1.733402,-6.902483,-4.034659,50.391701,17.636902
700000,-9.117120,1.893813,-7.141904,-3.194965,38.040554,15.972779
704000,-8.889671,1.889025,-7.141904,-3.194965,28.590172,15.346826
708000,-8.274361,1.953669,-6.548141,-2.553744,28.468035,15.530032
712000,-8.327033,1.980005,-6.303933,-3.378171,23.032921,14.354459
716000,-8.094796,2.070984,-6.399701,-3.256034,21.781012,13.728504
720000,-8.013393,2.116474,-6.509834,-3.652980,18.544371,13.239955
724000,-7.989451,2.178724,-6.514623,-5.347637,13.887882,11.850642
728000,-7.448361,2.126051,-5.724536,-5.958323,14.620707,11.331558
732000,-7.010222,2.023100,-5.137957,-5.500309,22.513836,11.316291
736000,-6.998251,2.075773,-5.204995,-6.004126,30.910784,11.484230
740000,-7.170634,2.140416,-5.382165,-7.652981,35.842079,11.148352
744000,-7.232883,2.231396,-5.758055,-9.240767,38.559639,10.537665
748000,-7.354988,2.226608,-6.040571,-10.034659,39.781013,9.270490
752000,-7.515399,2.161964,-6.100426,-10.233133,38.819180,7.896444
756000,-7.742848,2.214637,-5.978322,-9.927790,36.330631,6.934612
760000,-7.917625,2.061408,-5.889736,-8.920156,32.116890,5.239955
764000,-7.943961,2.049437,-5.951985,-8.019393,25.597805,4.155986
768000,-7.678205,1.857901,-5.523423,-5.576645,27.964218,4.415528
772000,-8.087613,1.800440,-5.516241,-4.370538,23.674141,3.881177
776000,-7.965509,1.872266,-5.554548,-3.301835,21.399332,3.728505
780000,-7.955932,1.788469,-5.698200,-1.118629,18.025288,2.858276
784000,-8.015787,1.841141,-5.717354,0.881371,12.880248,1.988047
788000,-8.104373,1.963245,-5.674258,1.354653,9.078722,0.354459
792000,-7.953538,1.769315,-5.207389,6.896638,8.376431,1.316291
796000,-8.561666,1.683124,-5.908890,4.835569,-11.028149,-2.088289
800000,-8.025364,1.620875,-5.449203,9.293585,-9.180820,-0.805846
804000,-8.513782,1.735796,-5.825093,10.438622,-15.425095,-1.721877
808000,-8.252813,1.817199,-6.033388,11.736333,-18.814407,-1.095922
812000,-8.465898,1.936909,-6.335058,9.598928,-25.730438,-2.179892
816000,-8.104373,1.948880,-6.296751,8.743966,-27.409828,-1.279129
820000,-7.821857,1.958457,-6.155493,6.530226,-22.325859,-0.363098
824000,-7.644686,1.984793,-5.985504,4.453890,-16.768606,0.171253
828000,-7.424419,1.972822,-5.963956,2.316485,-6.844942,1.468963
832000,-7.393295,2.042254,-6.138733,0.576027,4.132157,3.667437
836000,-7.433996,2.082955,-6.236896,-3.423972,9.429867,2.888810
840000,-7.697359,2.195483,-6.873753,-8.340003,5.750478,1.438429
844000,-7.180211,1.975216,-6.332664,-9.027026,18.803913,2.644536
848000,-7.943961,1.944092,-6.406884,-12.187331,18.773378,1.697971
852000,-7.960721,1.766921,-6.327875,-12.370538,21.475668,2.415528
856000,-8.154651,1.709460,-6.208165,-12.110995,22.406965,2.888810
860000,-8.118738,1.613692,-6.265626,-11.714049,23.109257,3.255223
864000,-8.288726,1.632846,-6.272809,-10.965958,21.597805,3.087284
868000,-8.343793,1.551443,-6.332664,-9.194965,18.651241,2.919345
872000,-8.396465,1.637634,-6.239290,-7.759851,16.223761,2.522398
876000,-8.298303,1.551443,-6.028600,-4.630079,15.002386,3.148352
880000,-8.554482,1.601721,-6.291962,-5.317102,3.628341,1.072016
884000,-8.295909,1.491588,-6.016629,-2.278934,4.574905,2.201787
888000,-8.528147,1.491588,-5.951985,-1.072828,-1.593034,1.041482
892000,-8.255207,1.446098,-5.937620,1.354653,-4.631201,1.102551
896000,-8.384495,1.525106,-5.844246,3.110379,-8.310591,0.430795
900000,-8.200141,1.498770,-5.813122,4.545493,-12.035782,0.293391
904000,-8.046912,1.611298,-5.688623,5.537859,-13.394561,-0.408900
908000,-7.951144,1.549049,-5.832275,7.278317,-13.883110,-0.592106
912000,-7.972692,1.668759,-6.131551,8.606562,-15.394561,-0.989052
916000,-8.068460,1.762132,-6.359000,8.423356,-18.631203,-1.416533
920000,-7.819463,1.821988,-6.143522,7.553127,-19.669371,-1.874548
924000,-7.663840,1.833959,-5.995081,7.644730,-17.470896,-1.706609
928000,-7.726089,1.970428,-6.117185,7.018775,-14.997614,-1.584472
932000,-7.671022,2.094927,-6.351817,5.095111,-13.318225,-1.492869
936000,-7.635109,2.094927,-6.423643,2.850837,-11.516698,-1.492869
940000,-7.721301,2.066196,-6.533776,0.682898,-9.333492,-1.370732
944000,-7.802703,2.114080,-6.727707,-1.149163,-8.173186,-1.050121
948000,-7.752425,2.059013,-6.586449,-3.103362,-7.394560,-1.248594
952000,-7.752425,2.056619,-6.359000,-4.675881,-5.257155,-1.004319
956000,-7.699753,1.958457,-6.045359,-5.790385,-2.585400,-0.271495
960000,-7.721301,1.903390,-5.872977,-6.217866,0.086356,-0.225693
964000,-7.829040,1.927332,-6.028600,-6.416339,0.651241,0.110184
968000,-7.872135,1.896208,-6.045359,-6.401072,-0.066316,-0.454701
972000,-7.876924,1.833959,-5.992687,-6.156797,-2.218988,-1.141724
976000,-7.929596,1.819593,-5.801151,-5.301835,-5.333491,-2.118823
980000,-7.896077,1.738190,-5.573701,-3.423972,-7.883110,-3.111190
984000,-7.929596,1.728614,-5.379771,-1.607178,-10.341125,-3.737144
988000,-8.049306,1.558625,-5.240908,0.362287,-12.341125,-4.622640
992000,-8.149862,1.510741,-5.312734,1.950073,-14.692270,-5.111189
996000,-8.331821,1.496376,-5.319916,3.293585,-17.089216,-5.401266
1000000,-8.374918,1.479617,-5.272032,4.469157,-19.012880,-5.447067
1004000,-8.422802,1.532289,-5.518635,5.797401,-20.646469,-5.050121
1008000,-8.343793,1.510741,-5.669470,6.209615,-22.112118,-4.866915
1012000,-8.377312,1.508347,-5.803545,6.270684,-22.997614,-4.454701
1016000,-8.216900,1.592144,-5.738902,5.461524,-22.646469,-4.042487
1020000,-8.015787,1.620875,-5.829881,4.362287,-19.928911,-3.233327
1024000,-7.831434,1.726219,-5.815516,2.972974,-16.112118,-3.080655
1028000,-7.781156,1.707066,-5.853823,1.308852,-11.211354,-2.760045
1032000,-7.778761,1.747767,-6.083666,-0.569010,-7.058682,-2.760045
1036000,-7.793127,1.817199,-6.157887,-2.813286,-4.371659,-2.408900
1040000,-7.910442,1.778892,-6.248867,-4.996491,-2.493797,-2.302029
1044000,-7.958326,1.766921,-6.145916,-6.324736,-1.501431,-2.637907
1048000,-7.963115,1.671153,-5.935226,-7.057561,-0.371659,-2.744777
1052000,-8.073248,1.668759,-5.829881,-7.042294,0.391699,-2.775312
1056000,-8.082825,1.525106,-5.734113,-7.042294,-0.280056,-2.927984
1060000,-8.236053,1.520318,-5.750873,-6.446874,-1.684637,-3.141724
1064000,-8.190564,1.443704,-5.580884,-5.775118,-2.493797,-2.943251
1068000,-8.293514,1.458069,-5.573701,-4.782751,-3.379293,-2.973785
1072000,-8.343793,1.470040,-5.506664,-4.309469,-5.852575,-3.065388
1076000,-8.252813,1.482011,-5.547365,-3.011759,-7.776239,-3.324930
1080000,-8.185776,1.539472,-5.372589,-1.744583,-9.531965,-3.615006
1084000,-8.094796,1.632846,-5.329493,-0.660614,-10.951813,-4.088289
1088000,-8.056489,1.616086,-5.444415,0.453890,-12.005248,-4.515770
1092000,-8.111555,1.673547,-5.734113,0.911905,-13.531965,-4.683709
1096000,-7.946355,1.719037,-5.856217,0.362287,-14.325858,-5.447067
1100000,-7.766790,1.872266,-5.755661,-1.836186,-12.234255,-5.752411
1104000,-8.133103,1.778892,-5.700594,-2.278934,-10.096850,-4.866915
1108000,-7.927202,1.759738,-5.513846,-1.027026,-10.386927,-4.454701
1112000,-7.838616,1.800440,-5.389348,-1.790385,-8.417461,-4.653174
1116000,-7.898471,1.747767,-5.600038,-3.103362,-4.982347,-4.378365
1120000,-8.061277,1.843535,-5.884948,-4.477407,-4.631201,-4.332564
1124000,-8.185776,1.783680,-5.683835,-5.027026,-7.837308,-4.393632
1128000,-7.951144,1.635240,-5.288792,-4.843820,-7.791507,-4.271495
1132000,-7.874529,1.601721,-5.066131,-4.294202,-5.730438,-4.271495
1136000,-7.982268,1.544260,-4.960786,-3.988858,-4.692270,-4.256228
1140000,-7.939173,1.517924,-4.922479,-3.301835,-4.066316,-4.424167
1144000,-8.018182,1.465251,-5.058948,-2.416339,-3.470896,-4.683709
1148000,-8.169016,1.486799,-5.130774,-1.790385,-3.318224,-4.775311
1152000,-8.331821,1.436521,-5.195418,-1.149163,-4.051049,-5.004319
1156000,-8.394072,1.364695,-5.252879,-0.553744,-5.150285,-4.851647
1160000,-8.470686,1.417367,-5.063736,0.743966,-6.020514,-4.546304
1164000,-8.439561,1.357512,-5.075707,1.873737,-6.768606,-4.271495
1168000,-8.461109,1.333570,-5.039794,3.171447,-6.264789,-3.844014
1172000,-8.444349,1.357512,-5.090073,3.904272,-6.478529,-3.767678
1176000,-8.525752,1.347936,-5.116409,4.805035,-7.089217,-3.279129
1180000,-8.439561,1.321599,-5.152322,5.354653,-7.638835,-3.248594
1184000,-8.358158,1.381454,-5.152322,6.392821,-7.257155,-3.095922
1188000,-8.305486,1.371878,-5.178658,7.522593,-7.012881,-3.126457
1192000,-8.343793,1.393425,-5.360618,8.026409,-8.570133,-3.218060
1196000,-8.480263,1.498770,-5.516241,8.606562,-9.974713,-3.462335
1200000,-8.556877,1.493982,-5.738902,8.530226,-11.837309,-3.065388
1204000,-8.564059,1.510741,-5.772420,7.950073,-13.638836,-3.187526
1208000,-8.578424,1.553837,-5.844246,7.736333,-15.272423,-3.080655
1212000,-8.556877,1.570596,-5.796362,7.110379,-16.417461,-2.882182
1216000,-8.336611,1.582567,-5.695806,6.423356,-17.486164,-2.622640
1220000,-8.123527,1.599327,-5.552154,6.102745,-16.096849,-2.469968
1224000,-7.931990,1.611298,-5.442020,5.537859,-14.570133,-2.927984
1228000,-7.908048,1.654393,-5.578490,5.034043,-12.707538,-3.340197
1232000,-7.917625,1.783680,-5.717354,3.827936,-11.608301,-3.584472
1236000,-8.101978,1.747767,-5.980716,2.072211,-11.852576,-4.057755
1240000,-8.212111,1.762132,-5.930438,0.514959,-12.677003,-4.271495
1244000,-8.121132,1.707066,-5.777209,-1.469774,-11.776240,-4.149358
1248000,-7.975086,1.697489,-5.509058,-3.301835,-8.325858,-3.309663
1252000,-7.915231,1.656788,-5.420473,-5.149163,-3.913644,-2.836380
1256000,-8.010999,1.549049,-5.465962,-6.981225,-0.295324,-2.271495
1260000,-8.097190,1.575385,-5.458780,-8.126263,3.002386,-1.615006
1264000,-8.195353,1.561020,-5.537788,-8.233133,4.559639,-1.492869
1268000,-8.226477,1.501164,-5.470751,-8.034659,4.590173,-1.431800
1272000,-8.391677,1.515530,-5.425261,-7.668247,3.277195,-1.416533
1276000,-8.415619,1.441309,-5.281609,-6.675881,1.368798,-1.844014
1280000,-8.298303,1.424550,-5.248090,-5.775118,-0.768606,-2.057755
1284000,-8.283937,1.364695,-4.922479,-4.370538,-2.096850,-2.622640
1288000,-8.113950,1.340753,-4.654328,-2.813286,-1.837308,-2.943251
1292000,-8.149862,1.309628,-4.534618,-1.179698,-0.570133,-2.851648
1296000,-8.382100,1.343147,-4.656722,0.362287,-0.112117,-2.989052
1300000,-8.439561,1.376666,-4.790798,0.927172,-0.722805,-2.744777
1304000,-8.597578,1.374272,-4.955997,1.675264,-1.669369,-2.714243
1308000,-8.520964,1.431733,-4.716578,2.392821,-2.386927,-2.653174
1312000,-8.599973,1.359907,-4.944026,3.339386,-2.738072,-2.576838
1316000,-8.645462,1.295263,-4.958392,4.682898,-1.180820,-1.844014
1320000,-8.805874,1.383849,-5.087678,4.652363,-1.898377,-1.309663
1324000,-8.810662,1.429338,-4.833893,5.598928,-2.447995,-1.523403
1328000,-9.023746,1.295263,-5.465962,4.988241,-10.493797,-2.103556
1332000,-8.528147,1.316811,-5.085284,6.087478,-3.409827,-0.836380
1336000,-8.992621,1.316811,-5.499481,5.278317,-8.249522,-1.218060
1340000,-8.844181,1.314417,-5.444415,4.820302,-7.913644,-0.363098
1344000,-8.913613,1.331176,-5.521029,4.026409,-8.478530,0.278123
1348000,-8.640674,1.417367,-5.535394,2.972974,-6.493797,1.667436
1352000,-8.537724,1.503559,-5.722142,1.232516,-4.906011,1.926978
1356000,-8.398860,1.654393,-5.956774,-0.599545,-3.196087,2.339192
1360000,-8.449138,1.630451,-5.985504,-2.263667,-1.867843,2.323925
1364000,-8.358158,1.575385,-5.899313,-3.469774,-1.028148,2.186520
1368000,-8.298303,1.553837,-5.779603,-4.675881,0.177959,2.323925
1372000,-8.322245,1.498770,-5.477933,-4.904889,-0.218988,2.308658
1376000,-8.298303,1.498770,-5.473145,-4.446874,-0.707537,2.262856
1380000,-8.183381,1.460463,-5.432444,-4.095729,-0.631201,1.972780
1384000,-8.169016,1.537078,-5.415684,-3.561377,-0.631201,1.820108
1388000,-8.178593,1.513135,-5.559336,-3.332370,-1.058682,1.270490
1392000,-8.202535,1.580173,-5.600038,-3.133896,-2.280056,1.102551
1396000,-8.212111,1.618480,-5.554548,-3.072828,-3.623568,0.766673
1400000,-8.212111,1.616086,-5.540183,-3.301835,-4.997613,0.369726
1404000,-8.137892,1.647211,-5.540183,-3.607178,-5.989980,-0.179892
1408000,-8.087613,1.601721,-5.458780,-3.881988,-6.860209,-0.363098
1412000,-8.087613,1.731008,-5.348647,-4.385805,-8.066316,-0.775312
1416000,-7.963115,1.608904,-5.329493,-4.416339,-7.135018,-1.172258
1420000,-7.965509,1.568202,-5.576096,-4.355270,-6.524331,-1.492869
1424000,-8.327033,1.735796,-5.255273,-7.897255,-10.325858,-2.073022
1428000,-7.773973,1.496376,-4.556166,-4.202599,-10.417461,-3.050121
1432000,-7.639898,1.522712,-4.400543,-1.576644,-3.623568,-2.882182
1436000,-7.924808,1.479617,-4.522647,0.759233,-1.394560,-3.447068
1440000,-7.977480,1.563414,-4.829105,1.675264,-1.669369,-3.950884
1444000,-8.008605,1.584962,-5.102044,1.507325,0.055821,-3.752411
1448000,-8.236053,1.565808,-4.963180,1.690531,0.315363,-3.981419
1452000,-8.343793,1.491588,-5.003881,2.041676,0.101623,-3.966152
1456000,-8.437167,1.429338,-5.097255,2.774501,0.132157,-4.073022
1460000,-8.532935,1.386243,-5.207389,3.354653,-0.615934,-3.630274
1464000,-8.609550,1.460463,-5.221754,2.789768,-1.730438,-3.462335
1468000,-8.473080,1.371878,-5.260061,3.064577,-2.325858,-3.248594
1472000,-8.576031,1.309628,-5.102044,3.629463,-2.310591,-2.744777
1476000,-8.650250,1.300052,-5.135562,3.934806,-2.386927,-2.485235
1480000,-8.516175,1.261744,-5.173870,4.011142,-2.295324,-1.981419
1484000,-8.552089,1.271321,-5.209783,4.514959,-2.218988,-2.149358
1488000,-8.573636,1.309628,-5.257667,5.339386,-2.539598,-1.569205
1492000,-8.657434,1.316811,-5.317522,5.461524,-3.364026,-1.294396
1496000,-8.702923,1.302446,-5.396531,5.522593,-4.600667,-1.004319
1500000,-8.741230,1.357512,-5.497087,5.705799,-6.035781,-0.576838
1504000,-8.628703,1.264138,-5.537788,5.461524,-7.455629,-0.393632
1508000,-8.611943,1.388637,-5.506664,5.034043,-8.875477,-0.042487
1512000,-8.556877,1.314417,-5.410896,4.652363,-10.051049,0.278123
1516000,-8.370130,1.431733,-5.458780,3.736333,-10.661736,0.217055
1520000,-8.183381,1.453280,-5.463568,3.140913,-10.280057,0.217055
1524000,-8.054094,1.477222,-5.339070,2.163814,-8.997614,-0.103556
1528000,-7.917625,1.515530,-5.324705,1.003508,-6.768606,-0.439434
1532000,-7.963115,1.525106,-5.501875,-0.340003,-3.531965,0.064383
1536000,-8.044518,1.659182,-5.511452,-1.469774,-1.608301,0.033849
1540000,-8.010999,1.740585,-5.523423,-3.408705,-0.447995,-0.302029
1544000,-8.070854,1.608904,-5.449203,-5.011759,0.849715,-0.531037
1548000,-8.202535,1.628057,-5.686229,-6.401072,2.025287,-0.744777
1552000,-8.425196,1.592144,-5.707777,-7.301835,2.086356,-0.836380
1556000,-8.556877,1.544260,-5.425261,-8.309469,1.964218,-0.683709
1560000,-8.441956,1.364695,-5.406107,-8.584278,1.689409,-1.202793
1564000,-8.317456,1.666364,-5.635951,-13.485042,7.261929,-0.698976
1568000,-9.026140,1.312023,-5.389348,-8.920156,2.635974,-0.179892
1572000,-8.542512,1.369483,-4.903325,-5.881988,-3.318224,-0.408900
1576000,-8.571242,1.273715,-4.769250,-4.309469,-3.425095,-0.531037
1580000,-8.489840,1.343147,-5.104438,-3.958324,0.010020,-0.073022
1584000,-8.731653,1.379060,-5.305551,-3.652980,-3.318224,-0.378365
1588000,-8.626308,1.429338,-5.145139,-2.355270,-8.463263,-0.622640
1592000,-8.382100,1.429338,-4.908113,-1.286568,-8.402194,-0.576838
1596000,-8.341399,1.474828,-4.912902,-0.523209,-7.012881,-0.347831
1600000,-8.372523,1.520318,-5.035006,-0.172064,-7.348759,-0.927984
1604000,-8.188169,1.505953,-4.881777,0.484424,-7.241889,-1.065388
1608000,-8.049306,1.460463,-4.697424,1.614195,-5.913644,-1.111190
1612000,-8.061277,1.462857,-4.623203,2.621829,-4.402194,-1.569205
1616000,-8.185776,1.462857,-4.692636,2.927173,-3.058682,-1.553938
1620000,-8.236053,1.482011,-4.778827,3.156180,-2.142652,-1.584472
1624000,-8.377312,1.505953,-4.857835,3.140913,-2.356392,-1.828747
1628000,-8.432379,1.453280,-4.809951,2.957707,-3.012881,-1.615006
1632000,-8.319851,1.467646,-4.728549,2.576027,-2.310591,-1.324930
1636000,-8.339005,1.484405,-4.745308,2.285951,-0.280056,-1.141724
1640000,-8.334216,1.534683,-4.814740,1.690531,1.674142,-0.622640
1644000,-8.360553,1.493982,-4.965574,1.308852,3.261928,-0.332564
1648000,-8.348581,1.594538,-5.137957,1.247783,4.437501,-0.210426
1652000,-8.327033,1.572991,-5.228937,1.034043,5.093989,0.033849
1656000,-8.542512,1.510741,-5.221754,1.095111,4.803913,-0.027220
1660000,-8.674192,1.513135,-5.272032,1.217249,3.292463,-0.073022
1664000,-8.614338,1.395820,-5.166687,1.247783,1.872615,-0.042487
1668000,-8.650250,1.429338,-5.312734,1.553127,0.834447,0.293391
1672000,-8.671799,1.424550,-5.485116,1.675264,-0.524331,0.201787
1676000,-8.628703,1.505953,-5.384560,1.797401,-1.898377,0.262856
1680000,-8.645462,1.496376,-5.537788,1.644730,-3.364026,0.354459
1684000,-8.453926,1.580173,-5.427655,1.430989,-4.799140,-0.011953
1688000,-8.437167,1.563414,-5.544971,0.789768,-5.119751,0.110184
1692000,-8.312668,1.637634,-5.597643,-0.248400,-5.257155,0.278123
1696000,-8.200141,1.601721,-5.540183,-0.981224,-4.371659,0.186520
1700000,-8.157045,1.596933,-5.396531,-1.317102,-3.806774,0.293391
1704000,-8.087613,1.549049,-5.267244,-1.149163,-3.623568,-0.302029
1708000,-8.042124,1.522712,-5.343858,-0.645346,-3.409827,-0.973785
1712000,-8.209718,1.496376,-5.106832,-0.278934,-3.684637,-1.553938
1716000,-8.226477,1.419762,-5.125986,0.194348,-4.356392,-2.011953
1720000,-8.286332,1.412579,-5.255273,0.896638,-4.768606,-1.996686
1724000,-8.339005,1.403002,-5.118803,1.095111,-4.875476,-2.225693
1728000,-8.432379,1.410185,-5.185841,1.736333,-5.012881,-2.195159
1732000,-8.429984,1.450886,-5.181053,1.705798,-5.104484,-2.134090
1736000,-8.468291,1.376666,-5.152322,2.148547,-5.486163,-1.782945
1740000,-8.564059,1.393425,-5.300763,2.209615,-6.264789,-1.981419
1744000,-8.520964,1.412579,-5.219360,1.995875,-7.196087,-1.905083
1748000,-8.497022,1.359907,-5.178658,2.072211,-7.196087,-2.042487
1752000,-8.518570,1.417367,-5.236119,1.827936,-6.799140,-1.920350
1756000,-8.592790,1.414973,-5.365406,1.553127,-6.585400,-1.874548
1760000,-8.635885,1.448492,-5.363012,0.789768,-6.814407,-1.584472
1764000,-8.667010,1.412579,-5.367800,0.331753,-7.043415,-1.553938
1768000,-8.695741,1.343147,-5.372589,0.011142,-7.394560,-1.172258
1772000,-8.638280,1.467646,-5.303157,-0.202598,-7.425095,-0.912716
1776000,-8.535329,1.410185,-5.389348,-0.263667,-7.486163,-0.836380
1780000,-8.568848,1.501164,-5.339070,-0.874354,-7.104484,-0.531037
1784000,-8.432379,1.436521,-5.245696,-1.042293,-5.852575,-0.134090
1788000,-8.432379,1.460463,-5.305551,-1.485041,-5.150285,-0.210426
1792000,-8.406042,1.477222,-5.329493,-2.385804,-4.890743,-0.134090
1796000,-8.494628,1.448492,-5.298368,-2.569010,-5.012881,-0.073022
1800000,-8.360553,1.467646,-5.080496,-2.843820,-5.104484,0.110184
1804000,-8.276755,1.455675,-5.035006,-2.798018,-4.585400,-0.485235
1808000,-8.200141,1.386243,-4.881777,-2.233133,-3.745705,-0.592106
1812000,-8.192958,1.391031,-4.867412,-1.362904,-2.768606,-0.927984
1816000,-8.221688,1.414973,-4.987122,-1.057560,-2.463263,-0.729510
1820000,-8.341399,1.412579,-5.125986,-1.027026,-2.432728,-1.111190
1824000,-8.374918,1.446098,-5.178658,-1.072828,-2.768606,-1.263861
1828000,-8.451532,1.458069,-5.104438,-1.439240,-3.272423,-1.080655
1832000,-8.418014,1.477222,-5.102044,-1.301835,-3.715171,-0.973785
1836000,-8.413225,1.458069,-4.965574,-1.179698,-3.944179,-0.790579
1840000,-8.346188,1.443704,-4.979939,-1.408705,-4.188453,-0.729510
1844000,-8.226477,1.477222,-4.869806,-1.729316,-3.806774,-0.882182
1848000,-8.116343,1.460463,-4.924873,-1.225499,-2.432728,-0.882182
1852000,-8.080431,1.553837,-5.015852,-1.332370,-1.119751,-0.760045
1856000,-8.087613,1.539472,-5.056554,-1.469774,-0.066316,-1.156991
1860000,-8.164227,1.546654,-5.104438,-1.943056,0.620707,-1.416533
1864000,-8.300697,1.565808,-5.135562,-2.431606,0.758111,-1.584472
1868000,-8.317456,1.522712,-5.058948,-2.507942,0.040554,-1.752411
1872000,-8.336611,1.544260,-5.114015,-2.920156,-0.799140,-1.935617
1876000,-8.348581,1.510741,-4.900931,-2.813286,-1.516698,-1.981419
1880000,-8.262390,1.424550,-4.797980,-2.477408,-1.562499,-2.073022
1884000,-8.334216,1.414973,-4.697424,-1.866720,-1.302957,-2.240961
1888000,-8.305486,1.323994,-4.627992,-1.485041,-0.524331,-1.859281
1892000,-8.291121,1.312023,-4.560954,-0.675881,0.406966,-1.813480
1896000,-8.319851,1.338359,-4.644751,0.423356,1.200860,-2.347831
1900000,-8.489840,1.333570,-4.821922,0.927172,0.666508,-2.164625
1904000,-8.535329,1.391031,-5.018247,1.278317,-0.768606,-2.042487
1908000,-8.547300,1.398214,-5.159505,1.125646,-2.264789,-2.225693
1912000,-8.564059,1.369483,-5.090073,1.232516,-3.287690,-1.782945
1916000,-8.599973,1.446098,-5.102044,0.988241,-3.577766,-1.889816
1920000,-8.422802,1.431733,-5.073313,0.637096,-3.654102,-1.584472
1924000,-8.362947,1.400608,-4.917690,0.347020,-3.272423,-1.676075
1928000,-8.343793,1.403002,-4.967968,0.682898,-2.951812,-1.584472
1932000,-8.396465,1.383849,-5.116409,0.545493,-2.646469,-1.156991
1936000,-8.329428,1.467646,-5.257667,0.240150,-2.463263,-1.340197
1940000,-8.245630,1.453280,-5.245696,0.011142,-1.562499,-1.615006
1944000,-8.300697,1.443704,-5.245696,-0.538476,-1.104484,-1.599739
1948000,-8.425196,1.482011,-5.221754,-1.317102,-1.715171,-2.134090
1952000,-8.511387,1.470040,-5.090073,-1.973591,-2.646469,-2.256228
1956000,-8.499416,1.386243,-4.898537,-2.233133,-2.921278,-2.118823
1960000,-8.592790,1.314417,-4.944026,-2.309469,-2.844942,-2.088289
1964000,-8.671799,1.309628,-4.979939,-2.172064,-3.440362,-1.950884
1968000,-8.805874,1.517924,-5.561730,-2.767484,-3.486163,-0.836380
1972000,-8.640674,1.340753,-4.793192,-5.362904,-9.684637,-2.011953
1976000,-8.377312,1.206678,-4.400543,-1.668247,-6.829675,-1.844014
1980000,-8.473080,1.307234,-4.441244,0.438623,-3.516698,-1.996686
1984000,-8.638280,1.400608,-4.800375,0.988241,-3.959446,-1.844014
1988000,-8.604761,1.436521,-5.233725,0.499691,-5.394560,-2.195159
1992000,-8.602366,1.362301,-5.087678,-0.095728,-5.333491,-1.828747
1996000,-8.626308,1.364695,-4.915296,-0.095728,-6.066316,-1.950884
