time_us,ax,ay,az,gx,gy,gz
0,1.242591,0.220267,8.781932,-1.225499,-0.218988,-3.095922
4000,1.151611,0.203507,8.856153,-0.553744,-1.226621,-3.401266
8000,1.072602,0.138864,8.858546,-0.217866,-1.776240,-3.462335
12000,1.132457,0.169988,8.939949,-0.294202,-1.196087,-3.492869
16000,1.221043,0.172383,8.880095,-0.294202,-0.951812,-3.294396
20000,1.228225,0.155623,8.892065,-0.691148,0.513837,-3.050121
24000,1.276109,0.100556,8.801085,-0.553744,1.857348,-3.385999
28000,0.988805,0.062249,8.863335,-0.675881,1.490936,-3.080655
32000,1.089362,0.059855,8.978256,-0.110996,1.216127,-3.019587
36000,1.065420,-0.002394,9.095572,0.469157,2.254295,-2.714243
40000,0.893037,0.040701,9.069236,1.049310,2.422234,-2.561571
44000,1.010353,0.014365,9.050082,1.827936,0.788646,-2.622640
48000,1.110910,0.038307,8.963891,2.148547,1.445134,-2.485235
52000,1.261744,0.023942,9.054871,2.453890,1.338264,-2.485235
56000,1.139640,0.076614,8.949526,2.881371,0.742844,-3.019587
60000,1.029507,0.079009,8.973468,3.034043,0.315363,-3.126457
64000,0.974440,0.021548,8.712500,2.499691,0.391699,-3.141724
68000,1.015141,0.114922,8.667010,1.583661,0.697043,-2.485235
72000,0.988805,0.119710,8.552089,0.820302,1.811547,-2.011953
76000,0.931344,0.083797,8.339005,-0.233133,3.002386,-1.599739
80000,0.936133,0.189142,8.262390,-1.561377,3.307730,-1.004319
84000,0.907402,0.189142,8.204929,-2.691148,3.597806,-0.897449
88000,0.957681,0.174777,8.195353,-3.637713,3.826814,-0.912716
92000,1.012747,0.215478,8.279149,-4.278934,3.552005,-0.744777
96000,1.027112,0.253785,8.310274,-4.630079,2.468035,-0.927984
100000,1.134852,0.232238,8.427590,-4.370538,1.582539,-1.202793
104000,1.070208,0.213084,8.602366,-4.172065,0.758111,-1.767678
108000,1.149217,0.196325,8.693346,-3.912522,-0.936545,-2.729510
112000,1.058237,0.095768,8.987833,-3.057560,-1.409827,-2.698976
116000,1.146823,0.088585,8.959103,-2.034660,-0.631201,-2.989052
120000,1.110910,0.114922,8.853758,-2.049927,0.864982,-3.187526
124000,0.857124,0.067038,8.851364,-1.912522,1.429867,-2.622640
128000,0.780510,0.043096,8.889671,-1.912522,1.811547,-1.721877
132000,0.926556,-0.021548,8.875306,-1.881988,3.552005,-0.760045
136000,0.806846,0.007183,8.781932,-1.744583,5.017653,-0.149358
140000,0.725443,-0.011971,8.552089,-2.309469,4.666509,0.598734
144000,0.718261,-0.019154,8.731653,-2.706415,3.246661,1.209421
148000,0.703895,-0.124498,8.779537,-2.782751,1.994753,1.499497
152000,0.775721,-0.074220,8.995016,-2.385804,1.368798,2.064383
156000,0.883460,-0.031125,9.267955,-1.927789,0.758111,2.552932
160000,1.120486,-0.019154,9.258378,-0.477408,0.223760,2.644536
164000,1.180341,0.059855,9.169792,0.530226,1.063455,2.369726
168000,1.137246,0.033519,9.224859,1.614195,1.460402,2.140719
172000,1.046266,0.033519,8.987833,2.224883,1.597806,1.636902
176000,1.046266,0.059855,8.947132,2.789768,1.155058,1.453696
180000,1.003170,0.062249,8.985439,3.186715,1.048188,0.904078
184000,1.072602,0.088585,8.966286,3.461524,1.536737,0.720871
188000,1.199495,0.086191,8.935161,3.614195,2.758112,0.614001
192000,1.242591,0.114922,8.817844,3.461524,4.758111,0.155986
196000,1.223437,0.122104,8.920795,3.415722,7.063455,0.537665
200000,1.113304,0.220267,8.779537,3.324119,9.490935,0.629268
204000,1.096544,0.160412,8.681376,3.018775,10.880248,0.491864
208000,1.015141,0.196325,8.441956,1.812669,12.773378,0.812474
212000,0.967257,0.282516,8.164227,0.927172,13.552004,1.285757
216000,0.823605,0.234632,8.049306,-0.981224,13.002386,1.881177
220000,0.964863,0.251391,7.960721,-2.950690,13.384066,2.064383
224000,0.916979,0.265756,7.809886,-5.973591,13.689409,1.789574
228000,0.833182,0.239420,7.903260,-9.179698,15.322997,2.415528
232000,0.823605,0.153229,8.037335,-10.889622,16.513836,3.499497
236000,0.823605,0.021548,8.410830,-11.851454,17.017653,4.476597
240000,1.132457,-0.002394,8.667010,-12.584277,20.101622,5.911711
244000,1.019930,0.002394,8.920795,-13.179698,24.055820,6.873543
248000,0.984017,-0.004788,9.023746,-14.049928,28.513836,8.201787
252000,1.082179,-0.071826,9.078813,-15.149163,33.353531,9.377359
256000,1.070208,-0.117316,9.244013,-15.118629,37.277195,10.430795
260000,1.110910,-0.088585,9.334992,-16.004124,40.391701,10.781940
264000,1.261744,-0.038307,9.418790,-16.752216,44.941319,11.499497
268000,1.055843,-0.114922,9.469068,-16.904888,49.552006,12.293390
272000,0.905008,-0.112527,9.361329,-16.950689,50.712311,13.178886
276000,1.120486,-0.141258,9.246407,-16.798018,53.048187,13.697970
280000,1.074997,-0.143652,9.050082,-16.477407,56.681774,14.476596
284000,1.039083,-0.107739,8.939949,-16.996490,59.674141,14.812474
288000,0.852336,-0.064643,8.774749,-18.126263,59.185593,14.934611
292000,0.957681,-0.124498,9.040505,-18.675880,64.971855,16.843010
296000,0.787692,-0.126893,9.090784,-19.729315,68.544373,18.293390
300000,0.976834,-0.112527,9.414001,-19.347635,72.666512,19.178886
304000,0.955287,-0.117316,9.727641,-19.698780,78.086357,20.369726
308000,1.134852,-0.169988,10.259154,-18.446873,85.979492,21.835377
312000,1.060631,-0.313640,10.455479,-16.126263,94.452774,23.468964
316000,0.916979,-0.169988,10.266336,-14.263667,101.735214,25.010948
320000,0.924162,-0.143652,10.158598,-13.927789,108.941322,26.339193
324000,1.005565,-0.117316,10.256760,-14.034659,117.475670,27.911713
328000,0.871489,-0.196325,10.055647,-13.225499,120.620712,28.476597
332000,0.914585,-0.220267,10.022128,-12.294202,126.926056,29.804842
336000,0.960075,-0.263362,10.034100,-10.553743,132.452759,30.140718
340000,0.931344,-0.284910,9.868899,-9.729317,138.712311,30.888811
344000,0.588974,-0.234632,9.550470,-10.538477,142.620697,32.186520
348000,0.545878,-0.280122,9.303867,-12.156796,147.948944,33.453697
352000,0.241814,-0.347159,8.959103,-13.805652,154.132156,35.545300
356000,0.131681,-0.354342,8.619126,-15.225499,159.002380,37.423161
360000,-0.079009,-0.356736,8.372523,-17.607178,163.170319,38.797207
364000,-0.129287,-0.459687,8.585608,-19.118628,170.788635,41.148354
368000,-0.577003,-0.454898,8.391677,-22.172064,179.948944,44.003315
372000,-0.936133,-0.495600,8.449138,-25.500307,189.155060,47.285759
376000,-0.972046,-0.548272,8.635885,-28.385803,197.399323,50.171253
380000,-1.072602,-0.665588,9.066842,-30.355270,207.643600,53.407894
384000,-1.144428,-0.744597,9.469068,-30.691147,221.338257,57.117817
388000,-1.225831,-0.699107,9.497798,-30.294201,232.590164,60.003315
392000,-1.549049,-0.588974,9.430760,-29.683514,237.475662,61.194153
396000,-1.386243,-0.684742,9.507375,-27.729315,242.712311,62.644535
400000,-1.515530,-0.653617,9.674969,-24.813284,245.842072,62.400261
404000,-1.596933,-0.430956,9.904813,-21.500307,247.322998,61.392628
408000,-1.367089,-0.648829,10.235212,-15.729316,246.559631,60.446064
412000,-1.015141,-0.658405,10.565612,-6.736950,251.429871,58.858276
416000,-1.072602,-0.442927,10.302250,1.430989,252.513840,56.155987
420000,-1.165976,-0.418985,9.720459,8.545493,250.483292,53.499496
424000,-1.455675,-0.287304,9.136273,12.881371,245.750473,50.155987
428000,-1.520318,-0.179565,8.655039,17.064577,242.422226,47.346825
432000,-1.711854,-0.198719,8.252813,19.125647,235.017654,43.713238
436000,-1.484405,-0.198719,8.626308,20.911905,236.132156,42.171253
440000,-1.290475,-0.344765,9.272743,22.423357,245.353531,40.491863
444000,-1.103727,-0.205901,9.148245,23.385189,263.231415,39.881176
448000,-1.577779,-0.102951,8.233660,20.988241,278.681793,39.545300
452000,-2.367866,-0.004788,7.086837,14.728699,289.781036,39.438431
456000,-2.961627,0.086191,6.409278,8.026409,300.544373,40.965145
460000,-3.373430,0.126893,6.184223,-0.340003,309.216125,42.904079
464000,-3.732560,0.026336,6.236896,-6.935423,316.315369,44.125454
468000,-4.067749,0.040701,5.849035,-12.370538,321.322998,45.468964
472000,-4.359841,0.076614,5.327099,-17.408705,326.468048,46.995682
476000,-4.970363,0.162806,4.754885,-23.362904,326.773376,48.659801
480000,-5.264850,0.217872,4.273650,-28.569012,321.948975,48.659801
484000,-5.329493,0.169988,4.216189,-31.118629,315.933685,48.781940
488000,-5.489904,0.122104,4.039018,-31.011757,307.429871,47.438431
492000,-5.635951,0.153229,4.084508,-29.805653,297.032928,45.362095
496000,-5.717354,0.241814,4.295198,-27.347635,284.483307,43.010948
500000,-5.887342,0.114922,4.120421,-23.927788,275.155060,40.049118
504000,-6.392519,0.141258,4.161122,-22.324736,263.414612,36.690338
508000,-6.804321,0.031125,4.199430,-19.301834,249.338257,33.636902
512000,-7.290344,0.028730,4.218584,-16.645346,235.246658,31.407894
516000,-7.465121,-0.107739,4.831499,-15.668248,223.918411,30.644537
520000,-7.228095,-0.095768,5.621585,-15.240767,223.643600,31.087284
524000,-7.216124,-0.110133,5.908890,-15.027026,232.254288,32.446064
528000,-7.800309,-0.064643,5.556942,-18.278934,239.063446,34.583466
532000,-8.125920,-0.014365,4.898537,-21.546110,242.605438,36.843010
536000,-7.845799,0.019154,4.865018,-23.133896,248.055817,41.056751
540000,-7.448361,0.000000,5.286397,-26.401072,255.567261,43.682705
544000,-6.713342,0.198719,5.379771,-26.019392,267.704681,45.285759
548000,-6.540959,0.543484,4.750096,-28.110996,272.498566,43.728504
552000,-6.687006,0.608127,3.593697,-28.920155,272.712311,41.896446
556000,-6.971915,0.667982,2.798822,-30.187332,264.177979,39.072018
560000,-6.912060,0.821211,2.576161,-30.462139,253.246658,35.468964
564000,-7.208941,0.735020,2.202666,-27.485041,232.208496,29.484230
568000,-7.244854,0.847547,2.267309,-25.973591,216.040543,25.133085
572000,-7.139510,0.888249,2.607286,-23.164431,201.338257,20.705605
576000,-6.631939,0.823605,3.071761,-19.515575,193.765747,16.797209
580000,-6.746861,0.756568,3.196259,-16.645346,192.086349,13.453695
584000,-7.259220,0.667982,3.143587,-11.851454,189.948944,11.133085
588000,-7.522582,0.426168,2.791639,-9.133897,183.964218,10.003314
592000,-7.450756,0.483629,3.203442,-8.004126,183.093979,8.171253
596000,-7.359776,0.332794,3.241749,-6.645347,188.834442,7.942246
600000,-7.644686,0.464475,2.612074,-7.439240,187.216125,5.072017
604000,-7.419631,0.416591,2.353500,-8.141530,193.628342,4.293391
608000,-7.843405,0.354342,2.293645,-10.233133,196.147415,2.568200
612000,-8.204929,0.304064,2.236184,-8.599545,198.116882,1.392627
616000,-8.710106,0.193930,1.774103,-7.729317,194.971848,0.675070
620000,-8.822633,0.043096,1.659182,-5.775118,194.635971,0.446062
624000,-9.356541,0.043096,1.065420,-3.943056,193.735199,1.102551
628000,-9.959879,0.181959,0.447716,-3.607178,185.994751,1.606368
632000,-9.651027,0.277727,0.232238,-6.233133,178.284821,2.369726
636000,-10.096349,0.114922,0.526724,-6.401072,178.071091,5.178887
640000,-9.691729,0.086191,0.023942,-4.416339,179.384064,8.339191
644000,-10.132261,0.215478,-0.744597,-6.110995,170.300095,8.690337
648000,-9.986216,0.253785,-1.134852,-7.332370,163.781006,10.629268
652000,-9.634268,0.251391,-1.077391,-8.309469,159.704666,12.629268
656000,-8.846576,0.414197,-0.548272,-11.485042,152.177948,11.316291
660000,-7.714118,0.356736,0.328006,-10.095729,161.063446,11.270490
664000,-7.536947,0.404620,0.526724,-8.813286,165.032913,8.049115
668000,-7.553706,0.423774,-0.205901,-6.904889,169.490936,4.797207
672000,-8.513782,0.490811,-0.938527,-7.805653,163.048187,1.621635
676000,-8.870518,0.258574,-0.859518,-5.011759,154.620697,-0.851648
680000,-9.002198,0.280122,-0.615310,-3.698782,145.918411,-3.447068
684000,-9.356541,0.031125,-0.347159,-1.698782,144.681778,-4.775311
688000,-10.014946,0.026336,-0.608127,1.369921,139.155060,-5.004319
692000,-10.560823,0.074220,-0.885855,2.072211,125.918419,-5.187525
696000,-10.728417,0.000000,-0.720655,2.316485,114.666512,-4.836380
700000,-10.541670,0.016759,-0.584185,2.484425,107.811546,-3.920350
704000,-10.534488,-0.035913,-0.411803,2.957707,100.956589,-3.019587
708000,-10.560823,-0.026336,-0.581791,3.369921,92.742851,-2.317297
712000,-10.647015,0.014365,-0.936133,4.499691,84.223763,-1.263861
716000,-10.383653,0.002394,-0.907402,5.446257,76.101624,0.354459
720000,-9.457097,0.002394,-0.174777,7.705798,75.796280,1.728505
724000,-9.093178,0.028730,-0.265756,11.201982,80.666512,2.369726
728000,-9.047688,0.079009,-0.667982,13.614195,84.895523,2.980413
732000,-9.188946,0.153229,-1.833959,16.469158,84.742851,5.331559
736000,-9.823410,0.387861,-2.097321,10.499692,70.513840,1.530032
740000,-9.593566,0.469264,-2.466028,10.560760,61.597805,0.690337
744000,-9.521740,0.524330,-2.600103,6.759233,58.895515,2.384994
748000,-9.112331,0.653617,-2.042254,2.118012,59.261929,2.278123
752000,-8.307879,0.440533,-1.917756,-3.042293,75.384071,3.728505
756000,-9.373300,0.610521,-2.547431,-9.225499,68.742851,3.820108
760000,-8.762778,0.792481,-2.911349,-14.691148,78.391701,4.339192
764000,-9.014170,0.866701,-2.999935,-22.217865,80.300102,3.606368
768000,-8.463503,0.859518,-2.489970,-27.240767,87.414604,4.140719
772000,-8.171411,0.926556,-2.176329,-31.194965,85.842087,1.239955
776000,-7.824251,0.782904,-1.843535,-32.065193,94.834450,0.995681
780000,-8.444349,0.814029,-2.166753,-35.408703,91.124527,-2.714243
784000,-8.671799,0.778116,-2.375048,-36.355270,85.490936,-4.744777
788000,-9.071630,0.526724,-1.968034,-36.843819,78.208496,-6.469968
792000,-9.131485,0.397437,-1.455675,-34.446873,69.628342,-8.729510
796000,-9.109938,0.136469,-1.000776,-29.561375,67.414604,-8.882182
800000,-9.689334,0.102951,-1.003170,-26.065193,58.437500,-10.088289
804000,-10.029311,0.026336,-1.321599,-22.828552,47.552006,-10.210426
808000,-10.426748,-0.107739,-1.462857,-19.500307,36.819180,-9.874549
812000,-10.481815,-0.110133,-1.546654,-15.057561,25.200859,-9.294396
816000,-10.575189,-0.181959,-1.738190,-11.576645,16.040554,-7.340197
820000,-10.620679,-0.172383,-1.862689,-8.385805,5.536737,-6.103556
824000,-10.675745,-0.184354,-2.059013,-6.614813,-4.325858,-4.790579
828000,-10.637438,-0.186748,-2.023100,-3.851454,-13.043416,-3.508136
832000,-10.742783,-0.232238,-2.104503,-2.034660,-20.707539,-1.706609
836000,-10.541670,-0.184354,-1.869871,-1.133896,-27.562500,-0.302029
840000,-10.273520,-0.203507,-1.553837,-0.904888,-30.280056,1.499497
844000,-10.065224,-0.076614,-1.331176,0.545493,-30.677004,3.713238
848000,-9.842564,0.055067,-1.503559,0.102745,-30.249523,6.155986
852000,-9.148245,0.287304,-1.295263,-2.630080,-22.829676,9.026215
856000,-8.238448,0.694318,-1.261744,-6.492675,-12.386927,10.369726
860000,-7.534553,0.928950,-1.996764,-14.813285,6.712310,10.568199
864000,-7.479486,1.244985,-2.961627,-24.431606,26.437500,10.873543
868000,-7.465121,1.261744,-3.684676,-33.668247,42.239029,11.010947
872000,-7.419631,1.355118,-3.615245,-42.294201,53.704678,9.087283
876000,-7.570466,1.161188,-3.354277,-48.416340,61.979485,7.316291
880000,-7.694964,0.967257,-2.748544,-50.645348,67.170326,4.873543
884000,-7.852982,0.780510,-2.193089,-51.133896,71.093994,2.110184
888000,-8.590396,0.593762,-1.989582,-50.141529,67.872620,-0.790579
892000,-9.404425,0.284910,-1.790863,-48.584278,59.322998,-2.775312
896000,-9.526528,0.021548,-1.173159,-42.843819,53.216125,-3.706610
900000,-9.821015,-0.217872,-0.751779,-35.805653,44.055820,-5.050121
904000,-9.962274,-0.246603,-0.665588,-29.561375,34.300095,-6.393632
908000,-10.271125,-0.488417,-0.553061,-21.881987,24.345898,-5.905083
912000,-10.220847,-0.565032,-0.509965,-13.515576,14.376431,-6.057755
916000,-10.251971,-0.567426,-0.383072,-7.240767,4.345898,-6.714243
920000,-10.352529,-0.605733,-0.577003,-0.370538,-4.386927,-6.760045
924000,-10.599131,-0.634463,-0.907402,4.972974,-13.425095,-6.607373
928000,-10.680533,-0.493206,-1.268927,9.217249,-23.959446,-6.134090
932000,-10.577583,-0.500388,-1.467646,12.331753,-31.791508,-5.569205
936000,-10.268731,-0.543484,-1.036689,16.514959,-35.486164,-3.889816
940000,-9.730036,-0.548272,-0.330400,22.240150,-29.791508,-2.011953
944000,-9.897630,-0.390255,-0.718261,27.690533,-27.928911,-0.897449
948000,-9.890448,-0.265756,-1.357512,30.133280,-27.165552,0.568200
952000,-9.981427,-0.251391,-2.068590,30.224884,-22.280056,4.232322
956000,-10.115502,0.232238,-2.114080,27.354654,-29.638836,1.530032
960000,-9.248801,0.150835,-2.506729,25.446257,-23.501431,4.751406
964000,-9.550470,0.663194,-2.542642,18.911905,-19.486164,4.873543
968000,-8.865729,0.761356,-2.731784,12.621829,-10.203721,7.133085
972000,-8.391677,0.890643,-3.011906,4.530226,4.651241,8.522398
976000,-8.003817,0.960075,-3.442862,-3.042293,21.460402,9.743772
980000,-8.037335,0.938527,-3.373430,-11.469774,40.605438,11.087283
984000,-8.760384,0.945710,-3.948039,-17.683514,35.048187,7.682703
988000,-7.929596,0.804452,-2.856283,-21.103361,45.948952,8.583467
992000,-8.408437,0.758962,-2.044648,-25.240767,44.773376,4.690337
996000,-8.494628,0.565032,-1.778892,-24.752216,44.147423,2.568200
1000000,-9.167398,0.225055,-1.450886,-25.317102,41.384064,0.888810
1004000,-9.689334,-0.028730,-1.491588,-21.057560,39.078720,1.362093
1008000,-10.632649,-0.160412,-1.453280,-17.362904,26.849714,1.178887
1012000,-10.661380,-0.399832,-1.228225,-11.958323,16.788645,1.713238
1016000,-10.776301,-0.445322,-1.156399,-6.660614,6.452768,2.568200
1020000,-10.601525,-0.462081,-1.098939,-1.225499,-0.967079,4.064383
1024000,-10.285490,-0.351948,-1.041478,3.369921,-8.524332,4.354459
1028000,-9.856929,-0.275333,-0.962469,7.156180,-14.310591,4.491864
1032000,-9.435549,-0.141258,-1.173159,11.324119,-17.623568,3.621635
1036000,-9.315839,0.064643,-1.654393,14.606562,-21.409828,2.995681
1040000,-9.318233,0.155623,-2.147599,16.362288,-25.654102,1.988047
1044000,-9.330204,0.265756,-2.324770,17.095112,-31.028149,0.919345
1048000,-9.002198,0.270545,-1.795651,18.240150,-32.295322,0.201787
1052000,-8.832211,0.356736,-1.575385,19.797401,-26.341125,0.354459
1056000,-8.999804,0.349553,-2.037466,19.568394,-21.165552,0.384994
1060000,-9.184157,0.466869,-2.777274,17.659998,-18.020515,1.301024
1064000,-9.205706,0.541090,-3.119645,15.064577,-11.745706,2.415528
1068000,-9.502586,0.725443,-3.289633,9.644730,-15.165553,1.621635
1072000,-8.817844,0.632069,-3.019088,5.003509,-8.035782,3.163620
1076000,-8.863335,0.648829,-2.743755,-0.614812,0.880249,3.926979
1080000,-8.619126,0.584185,-2.590526,-2.981224,10.284829,5.041482
1084000,-8.707711,0.658405,-2.715025,-7.897255,16.712309,4.446063
1088000,-9.136273,0.512359,-2.825158,-11.011759,21.124523,4.644536
1092000,-9.457097,0.318429,-2.758120,-12.370538,22.437500,4.904078
1096000,-9.739613,0.201113,-2.533065,-13.194964,18.468035,4.659803
1100000,-9.825804,0.126893,-2.401384,-13.805652,13.826814,4.339192
1104000,-10.022128,0.090980,-2.372654,-13.469775,9.292462,4.720871
1108000,-10.081984,-0.011971,-2.221819,-12.538476,3.765745,4.965147
1112000,-10.077195,-0.004788,-1.886631,-11.790385,-2.112118,5.194154
1116000,-9.864111,0.021548,-1.498770,-10.324736,-7.073949,5.148353
1120000,-9.531317,0.000000,-1.235408,-8.798018,-11.287690,4.400261
1124000,-9.176975,-0.038307,-1.185130,-6.172065,-8.066316,4.873543
1128000,-9.296685,0.124498,-1.165976,-4.981225,-8.509065,3.911711
1132000,-9.074024,0.184354,-1.130063,-4.263667,-10.066317,2.873543
1136000,-8.961497,0.131681,-0.938527,-3.622446,-9.883110,1.636902
1140000,-8.592790,0.174777,-0.497994,-0.721682,-6.738071,0.354459
1144000,-8.748413,0.205901,-0.557849,2.560760,-3.119751,-0.851648
1148000,-9.033323,0.323217,-1.012747,3.934806,-4.005247,-2.302029
1152000,-9.361329,0.325611,-1.345541,4.438623,-7.150285,-2.958518
1156000,-9.509769,0.268151,-1.393425,5.324119,-8.921278,-2.790579
1160000,-9.672575,0.222661,-1.482011,5.751600,-10.020514,-2.378365
1164000,-9.732430,0.234632,-1.577779,6.041677,-10.463263,-1.477602
1168000,-9.785102,0.217872,-1.678335,6.148546,-10.906011,-0.714243
1172000,-9.770737,0.232238,-1.764527,5.934806,-11.150286,0.293391
1176000,-9.694122,0.136469,-1.836353,6.118012,-10.157920,2.064383
1180000,-9.605537,0.253785,-1.927332,6.728699,-8.722805,2.552932
1184000,-9.461885,0.325611,-2.061408,4.331753,-11.531965,2.476597
1188000,-9.212888,0.385466,-2.133234,2.408089,-8.829675,2.965146
1192000,-9.253590,0.416591,-2.276886,-0.126262,-6.967079,3.255223
1196000,-9.334992,0.478840,-2.434903,-2.706415,-4.707537,4.232322
1200000,-9.418790,0.313640,-2.434903,-5.072827,-4.157919,4.522398
1204000,-9.337387,0.328006,-2.461239,-7.057561,-2.051049,5.301024
1208000,-9.069236,0.260968,-2.238579,-8.706415,0.483302,5.499497
1212000,-8.954314,0.239420,-2.166753,-9.301835,3.109257,4.995681
1216000,-8.985439,0.239420,-1.812411,-9.301835,4.910783,4.995681
1220000,-8.707711,0.244209,-1.254562,-8.614813,8.697042,4.873543
1224000,-8.315063,0.153229,-0.672771,-7.103362,16.361164,4.400261
1228000,-8.398860,0.268151,-0.761356,-5.958323,23.017653,3.270490
1232000,-8.688558,0.308852,-1.142034,-5.011759,26.574905,2.262856
1236000,-9.109938,0.272939,-1.680730,-4.843820,26.834448,1.759039
1240000,-9.550470,0.256180,-2.159570,-4.599545,23.063456,1.514765
1244000,-9.799467,0.246603,-2.310405,-4.294202,17.918417,1.759039
1248000,-9.931149,0.193930,-2.281674,-3.454507,13.093989,2.171253
1252000,-9.907207,0.196325,-2.315193,-2.584278,8.315363,2.369726
1256000,-9.653421,0.284910,-2.262521,-1.759850,4.086356,2.980413
1260000,-9.402030,0.335188,-1.994370,-0.141530,-1.302957,2.339192
1264000,-9.124303,0.337582,-1.709460,1.644730,-4.447995,1.407894
1268000,-8.971074,0.414197,-1.594538,4.347020,-5.669369,0.446062
1272000,-9.112331,0.433351,-1.596933,5.843203,-8.249522,-0.469968
1276000,-9.196129,0.471658,-1.917756,6.362287,-10.814408,-1.279129
1280000,-9.188946,0.517148,-1.757344,6.759233,-12.447996,-1.279129
1284000,-9.141062,0.428562,-1.704672,7.476791,-12.356393,-1.844014
1288000,-9.275137,0.459687,-1.855506,8.026409,-13.089217,-1.920350
1292000,-9.569624,0.454898,-2.286463,7.537859,-15.104485,-1.630274
1296000,-9.643845,0.426168,-2.449268,7.263050,-18.432728,-1.721877
1300000,-9.629479,0.390255,-2.583344,6.713432,-21.012880,-1.263861
1304000,-9.686940,0.428562,-2.346318,5.736333,-21.791508,-0.424167
1308000,-9.459491,0.385466,-2.111686,4.514959,-18.768606,0.827742
1312000,-9.191340,0.395043,-1.824382,2.988241,-12.157920,2.476597
1316000,-9.059659,0.557849,-2.020706,0.560760,-5.516697,3.270490
1320000,-8.908825,0.591368,-2.250550,-1.820919,0.437501,3.560566
1324000,-9.028535,0.639252,-2.454057,-4.538477,4.681776,3.835375
1328000,-9.150639,0.651223,-2.681506,-6.935423,6.055821,3.377360
1332000,-9.263166,0.653617,-2.549825,-9.225499,5.200860,3.453696
1336000,-9.430760,0.624887,-2.573767,-11.210233,3.384066,3.484231
1340000,-9.411607,0.574608,-2.513912,-12.828553,1.536737,3.774307
1344000,-9.346964,0.569820,-2.082955,-14.828553,1.567272,4.140719
1348000,-9.296685,0.555455,-1.920150,-16.645346,3.002386,4.766673
1352000,-9.006987,0.512359,-1.599327,-17.072826,4.132157,5.163620
1356000,-8.647857,0.553061,-2.006341,-15.866721,6.177959,4.720871
1360000,-8.353370,0.450110,-1.072602,-15.790385,2.758112,2.125452
1364000,-8.271967,0.344765,-0.735020,-10.691149,6.529104,0.736139
1368000,-8.640674,0.258574,-0.897826,-7.210233,8.559638,-0.561571
1372000,-9.109938,0.356736,-1.055843,-3.698782,3.994753,-1.874548
1376000,-9.313444,0.330400,-1.077391,-0.263667,0.040554,-2.668442
1380000,-9.315839,0.208296,-0.962469,2.652363,-2.035782,-2.866915
1384000,-9.361329,0.251391,-1.039083,5.217249,-5.241889,-3.218060
1388000,-9.337387,0.287304,-1.192312,7.400455,-6.112117,-3.187526
1392000,-9.344569,0.332794,-1.491588,8.438622,-6.020514,-2.790579
1396000,-9.337387,0.313640,-1.872266,8.713432,-6.127385,-2.469968
1400000,-9.447520,0.402226,-2.169147,8.514958,-5.852575,-1.905083
1404000,-9.464279,0.418985,-2.288857,7.614195,-5.913644,-1.508136
1408000,-9.418790,0.371101,-2.240973,6.438623,-6.585400,-1.034854
1412000,-9.502586,0.383072,-2.331953,4.911905,-6.631201,-0.851648
1416000,-9.433155,0.328006,-2.188300,2.896638,-6.661736,0.018581
1420000,-9.437943,0.280122,-2.056619,1.629462,-6.127385,0.247589
1424000,-9.232041,0.339977,-1.742979,1.079844,-5.486163,0.720871
1428000,-9.011775,0.359130,-1.726219,0.484424,-3.593034,0.690337
1432000,-9.006987,0.385466,-1.606509,-0.294202,-0.035782,0.797207
1436000,-9.129091,0.416591,-1.944092,-0.859087,2.315363,0.904078
1440000,-9.291897,0.395043,-2.056619,-1.759850,2.193226,0.949879
1444000,-9.490616,0.366313,-1.860295,-2.217866,1.994753,1.270490
1448000,-9.481039,0.349553,-1.788469,-2.034660,2.193226,1.759039
1452000,-9.502586,0.354342,-1.704672,-1.943056,1.948951,2.278123
1456000,-9.282320,0.311246,-1.589750,-1.179698,2.895516,2.323925
1460000,-9.200917,0.325611,-1.549049,-0.507942,3.903150,2.675070
1464000,-9.241618,0.356736,-1.661576,0.133279,2.926050,2.125452
1468000,-9.251195,0.442927,-1.893813,0.652363,1.643608,1.988047
1472000,-9.244013,0.385466,-1.939303,1.339386,0.315363,1.636902
1476000,-9.282320,0.390255,-2.025495,2.438623,-1.989980,1.087284
1480000,-9.361329,0.383072,-1.953669,2.713432,-3.822041,0.888810
1484000,-9.394848,0.442927,-2.154782,2.789768,-5.608301,0.797207
1488000,-9.323022,0.450110,-2.116474,2.347020,-6.707537,0.827742
1492000,-9.239224,0.466869,-2.133234,1.705798,-6.875476,1.056749
1496000,-9.258378,0.478840,-2.331953,1.003508,-6.509064,1.148352
1500000,-9.272743,0.514753,-2.413355,-0.248400,-6.921278,1.331558
1504000,-9.282320,0.502782,-2.561796,-1.301835,-7.669369,1.239955
1508000,-9.291897,0.474052,-2.602497,-2.507942,-8.234255,1.591100
1512000,-9.275137,0.526724,-2.530671,-3.943056,-8.249522,1.652169
1516000,-9.081207,0.502782,-2.200271,-5.194965,-6.600667,2.003314
1520000,-9.064447,0.548272,-2.298434,-6.614813,-4.264789,2.125452
1524000,-9.121908,0.562637,-2.324770,-8.202599,-3.531965,2.232322
1528000,-9.045294,0.495600,-2.126051,-9.454507,-3.623568,1.713238
1532000,-8.793902,0.390255,-1.592144,-9.225499,-2.768606,1.316291
1536000,-8.803479,0.344765,-1.436521,-7.820919,-0.936545,0.415528
1540000,-9.117120,0.339977,-1.391031,-6.370538,-1.241889,-0.179892
1544000,-9.346964,0.328006,-1.613692,-5.362904,-2.967079,-0.927984
1548000,-9.591172,0.339977,-1.520318,-4.202599,-5.440361,-1.309663
1552000,-9.552865,0.258574,-1.450886,-3.118629,-7.333491,-0.851648
1556000,-9.519346,0.268151,-1.216254,-1.546110,-6.539598,-0.500503
1560000,-9.315839,0.222661,-1.235408,-0.798018,-5.058682,-0.256228
1564000,-9.275137,0.399832,-1.326388,-0.782751,-3.470896,0.094917
1568000,-9.318233,0.397437,-1.450886,-0.706415,-1.180820,0.476597
1572000,-9.461885,0.440533,-1.817199,-1.362904,-0.921278,0.705604
1576000,-9.459491,0.423774,-1.759738,-1.851454,-2.661736,1.041482
1580000,-9.404425,0.464475,-1.582567,-1.790385,-3.669369,1.072016
1584000,-9.311050,0.371101,-1.544260,-1.179698,-4.249522,1.026215
1588000,-9.279925,0.373495,-1.355118,-0.706415,-4.509064,0.827742
1592000,-9.315839,0.347159,-1.381454,0.667630,-5.272423,0.766673
1596000,-9.428367,0.301669,-1.264138,1.797401,-7.089217,0.827742
1600000,-9.454702,0.304064,-1.247379,3.095111,-8.646469,0.995681
1604000,-9.437943,0.275333,-1.225831,3.782134,-9.333492,1.010948
1608000,-9.502586,0.318429,-1.338359,4.698165,-9.715171,1.301024
1612000,-9.447520,0.289698,-1.484405,5.217249,-10.432729,1.743772
1616000,-9.493010,0.385466,-1.702277,5.217249,-11.135018,1.896444
1620000,-9.540894,0.407014,-1.750161,4.545493,-11.745706,2.430795
1624000,-9.160215,0.490811,-1.721431,3.904272,-10.218988,2.919345
1628000,-9.054871,0.471658,-1.778892,2.408089,-7.562499,2.843009
1632000,-9.064447,0.500388,-1.968034,0.972974,-5.028148,2.644536
1636000,-8.971074,0.596156,-1.891419,-1.072828,-3.119751,3.255223
1640000,-8.571242,0.524330,-1.680730,-1.362904,1.567272,2.919345
1644000,-8.202535,0.577003,-1.520318,-1.591912,6.040555,1.346826
1648000,-8.056489,0.610521,-1.522712,-1.820919,9.246661,-1.156991
1652000,-8.389283,0.684742,-1.680730,-2.462140,12.651241,-2.546304
1656000,-8.848969,0.658405,-1.848324,-3.362904,13.246661,-3.599739
1660000,-9.081207,0.512359,-1.714248,-3.836186,10.574905,-4.622640
1664000,-9.323022,0.447716,-1.482011,-3.683514,8.742844,-5.111189
1668000,-9.411607,0.390255,-1.640028,-3.408705,7.628340,-4.927983
1672000,-9.538500,0.361524,-1.716643,-3.469774,5.307730,-4.698976
1676000,-9.461885,0.404620,-1.759738,-3.515576,3.231394,-4.714243
1680000,-9.495404,0.342371,-1.599327,-3.225499,1.750478,-4.149358
1684000,-9.442732,0.284910,-1.707066,-2.294202,0.300096,-4.103556
1688000,-9.404425,0.328006,-1.546654,-1.912522,-1.165553,-3.645541
1692000,-9.356541,0.368707,-1.596933,-1.194965,-2.142652,-3.782945
1696000,-9.320627,0.368707,-1.731008,-0.813286,-2.661736,-3.660808
1700000,-9.323022,0.301669,-1.553837,-0.736950,-4.081583,-3.462335
1704000,-9.323022,0.361524,-1.369483,0.194348,-5.089217,-3.630274
1708000,-9.291897,0.356736,-1.465251,0.957707,-5.791507,-3.355464
1712000,-9.301474,0.383072,-1.534683,1.324119,-6.493797,-3.324930
1716000,-9.313444,0.387861,-1.546654,1.293585,-7.073949,-3.141724
1720000,-9.203311,0.397437,-1.493982,1.415722,-6.997613,-2.729510
1724000,-9.174581,0.430956,-1.470040,1.797401,-6.096850,-2.744777
1728000,-9.284714,0.452504,-1.606509,1.705798,-6.661736,-2.317297
1732000,-9.114726,0.375890,-1.335965,2.163814,-7.257155,-2.073022
1736000,-8.750807,0.354342,-1.187524,2.743967,-4.753339,-2.271495
1740000,-8.736442,0.385466,-1.271321,2.957707,-0.264789,-2.408900
1744000,-9.016563,0.344765,-1.644817,2.499691,3.277195,-2.500503
1748000,-9.308656,0.301669,-2.111686,1.721066,3.170325,-2.989052
1752000,-9.564836,0.239420,-2.188300,0.866104,0.880249,-3.034854
1756000,-9.612720,0.265756,-2.209848,0.362287,-0.890743,-2.546304
1760000,-9.595961,0.129287,-2.025495,-0.004125,-1.531965,-1.950884
1764000,-9.739613,0.167594,-1.970428,-0.553744,-1.852576,-0.958518
1768000,-9.629479,0.169988,-1.944092,-1.256034,-1.989980,-0.531037
1772000,-9.464279,0.177171,-1.836353,-0.874354,-2.493797,0.140719
1776000,-9.294291,0.181959,-1.606509,-0.172064,-3.318224,0.110184
1780000,-8.973468,0.184354,-1.450886,1.324119,-2.295324,-0.622640
1784000,-8.913613,0.122104,-1.364695,2.285951,-0.814408,-1.263861
1788000,-9.160215,0.227449,-1.594538,2.972974,-0.402194,-2.195159
1792000,-9.437943,0.134075,-1.723825,2.972974,-0.982347,-2.332564
1796000,-9.557653,0.179565,-1.733402,2.743967,-1.867843,-2.210426
1800000,-9.679757,0.203507,-1.838747,2.026409,-3.028148,-1.996686
1804000,-9.734824,0.193930,-1.994370,1.415722,-4.051049,-1.340197
1808000,-9.624691,0.265756,-1.972822,0.591295,-4.295324,-0.607373
1812000,-9.612720,0.294487,-1.838747,-0.095728,-3.638835,-0.256228
1816000,-9.291897,0.390255,-1.802834,-1.027026,-3.379293,0.446062
1820000,-9.105149,0.390255,-1.640028,-1.118629,-0.310591,0.140719
1824000,-9.095572,0.435745,-1.776498,-1.133896,1.765745,0.079650
1828000,-9.234436,0.349553,-1.795651,-1.332370,1.613073,-0.118823
1832000,-9.224859,0.265756,-1.438915,-0.828552,1.979486,-0.454701
1836000,-9.320627,0.213084,-1.139640,0.362287,3.017654,-0.561571
1840000,-9.457097,0.193930,-0.979228,2.270684,3.155058,-0.592106
1844000,-9.521740,0.196325,-1.046266,3.721066,2.803913,-0.500503
1848000,-9.674969,0.186748,-1.118092,5.705799,2.635974,-0.088289
1852000,-9.720459,0.191536,-1.060631,6.652363,2.635974,0.675070
1856000,-9.643845,0.210690,-1.039083,8.652364,2.544371,1.041482
1860000,-9.624691,0.222661,-1.165976,10.453890,2.315363,1.514765
1864000,-9.658210,0.217872,-1.510741,11.736333,1.231394,1.988047
1868000,-9.749189,0.359130,-1.589750,12.331753,-0.356392,2.461329
1872000,-9.797073,0.433351,-1.649605,12.972974,-3.318224,2.583467
1876000,-9.708488,0.397437,-1.740585,13.889005,-5.348759,2.949879
1880000,-9.854534,0.397437,-2.063802,13.476790,-7.394560,3.728505
1884000,-9.911995,0.471658,-2.173935,12.713431,-10.646469,4.293391
1888000,-9.670180,0.531513,-2.051831,11.965341,-13.318225,4.858276
1892000,-9.354146,0.624887,-2.121263,9.217249,-11.089217,5.301024
1896000,-9.289502,0.624887,-2.061408,6.835569,-8.783874,5.850643
1900000,-8.956709,0.754174,-2.286463,3.461524,-5.211354,6.033849
1904000,-8.810662,0.768539,-2.430115,-0.431606,0.437501,6.064383
1908000,-8.920795,0.869095,-2.657564,-4.828553,6.040555,6.140719
1912000,-9.100361,0.938527,-2.786851,-8.904889,8.468035,6.018581
1916000,-9.117120,0.826000,-2.726996,-12.462140,8.941318,5.423162
1920000,-9.193734,0.679953,-2.343924,-14.034659,9.322997,5.224689
1924000,-9.200917,0.548272,-1.881842,-15.118629,9.994752,4.827742
1928000,-8.968679,0.421380,-1.321599,-14.294202,11.506203,4.201787
1932000,-8.887277,0.287304,-1.036689,-12.920156,12.529103,3.346826
1936000,-8.877700,0.220267,-0.732626,-10.446874,12.574905,2.049116
1940000,-8.987833,0.208296,-0.766145,-8.019393,11.781012,0.461329
1944000,-9.306262,0.189142,-0.854730,-5.286569,9.765745,-0.439434
1948000,-9.528923,0.090980,-0.928950,-2.630080,5.231394,-1.141724
1952000,-9.543288,0.059855,-1.058237,0.957707,0.544371,-1.538671
1956000,-9.718064,0.090980,-1.175553,3.598928,-3.669369,-1.508136
1960000,-9.639056,0.090980,-1.240196,5.629463,-7.226621,-1.584472
1964000,-9.583989,0.189142,-1.300052,6.835569,-9.486164,-1.187526
1968000,-9.428367,0.213084,-1.575385,7.156180,-10.341125,-1.218060
1972000,-9.311050,0.308852,-1.807622,7.369921,-9.333492,-0.897449
1976000,-9.334992,0.373495,-2.011129,6.789768,-8.325858,-0.332564
1980000,-9.380483,0.459687,-2.212242,5.812669,-8.524332,-0.332564
1984000,-9.327810,0.457293,-2.169147,4.728699,-8.356393,0.232322
1988000,-9.179369,0.464475,-2.037466,3.980608,-7.272423,0.491864
1992000,-9.081207,0.493206,-1.884237,3.125646,-5.776239,0.675070
1996000,-9.050082,0.557849,-1.752556,2.087478,-4.203721,0.965146
