time_us,ax,ay,az,gx,gy,gz
0,0.126893,-0.699107,9.004593,-2.996492,8.254294,1.072016
4000,0.031125,-0.770933,8.856153,-2.920156,8.269562,1.209421
8000,0.031125,-0.770933,8.887277,-2.736950,7.155058,1.148352
12000,0.069432,-0.763750,8.712500,-2.187331,5.842081,0.888810
16000,0.124498,-0.715866,8.757990,-1.805652,4.147425,0.812474
20000,0.095768,-0.715866,8.719683,-1.851454,2.345898,0.339192
24000,0.169988,-0.758962,8.872911,-1.897255,1.109257,-0.576838
28000,0.189142,-0.713472,9.057265,-1.485041,0.697043,-0.866915
32000,0.141258,-0.758962,9.066842,-1.179698,0.177959,-1.065388
36000,-0.038307,-0.766145,9.107543,-0.569010,-0.432728,-1.034854
40000,-0.026336,-0.770933,9.155427,0.637096,0.529104,-1.019587
44000,-0.107739,-0.754174,9.033323,1.034043,1.826814,-0.668442
48000,-0.217872,-0.691924,8.860941,0.713432,3.460402,0.247589
52000,-0.208296,-0.627281,8.717288,-0.156797,4.788646,0.858276
56000,-0.311246,-0.672771,8.578424,-1.042293,5.704677,2.125452
60000,-0.328006,-0.651223,8.578424,-1.530843,6.116890,2.904078
64000,-0.344765,-0.600945,8.655039,-2.065194,6.620707,3.514765
68000,-0.153229,-0.610521,8.588001,-2.569010,7.185593,4.186521
72000,-0.062249,-0.562637,8.532935,-2.813286,7.689410,4.369727
76000,-0.114922,-0.593762,8.499416,-3.225499,7.460402,4.125452
80000,-0.064643,-0.605733,8.410830,-4.126263,6.193226,3.743773
84000,-0.023942,-0.600945,8.465898,-4.798018,4.483303,3.270490
88000,0.033519,-0.610521,8.449138,-5.576645,2.544371,2.919345
92000,0.067038,-0.632069,8.453926,-5.927790,0.254295,2.155986
96000,0.174777,-0.703895,8.501810,-5.256034,-2.447995,0.858276
100000,0.071826,-0.696713,8.702923,-3.897255,-4.967079,0.430795
104000,-0.016759,-0.744597,8.647857,-2.416339,-7.150285,0.003314
108000,-0.035913,-0.713472,8.688558,-1.912522,-8.157919,0.125452
112000,-0.043096,-0.742203,8.884883,-1.729316,-8.554866,0.308658
116000,0.050278,-0.787692,8.930372,-1.240766,-7.745705,0.430795
120000,0.074220,-0.806846,8.920795,-0.798018,-6.035781,0.766673
124000,0.071826,-0.758962,8.973468,-0.691148,-5.119751,0.858276
128000,0.112527,-0.814029,8.920795,-0.645346,-4.035782,1.148352
132000,0.083797,-0.837971,9.016563,-0.385804,-2.997614,1.331558
136000,0.088585,-0.823605,8.990228,0.011142,-2.402194,1.346826
140000,0.203507,-0.871489,8.973468,0.606562,-0.539598,1.438429
144000,0.146046,-0.876278,8.887277,0.621829,1.719944,1.652169
148000,0.047884,-0.900220,8.853758,0.652363,3.552005,1.896444
152000,0.117316,-0.852336,8.714894,0.377554,4.361165,1.988047
156000,0.059855,-0.916979,8.791509,0.576027,3.139791,1.926978
160000,0.069432,-0.902614,8.851364,0.896638,1.613073,1.636902
164000,0.122104,-1.003170,9.009381,1.782134,-0.356392,1.530032
168000,0.208296,-0.955287,8.971074,1.995875,-1.562499,1.087284
172000,0.129287,-1.005565,8.932767,2.469157,-2.402194,0.858276
176000,0.174777,-1.072602,8.987833,2.576027,-2.661736,0.659803
180000,0.158017,-1.089362,8.877700,2.576027,-2.386927,0.659803
184000,0.129287,-1.233014,8.971074,2.499691,-2.112118,0.888810
188000,0.158017,-1.158794,8.942344,2.179081,-1.516698,0.843009
192000,0.189142,-1.295263,8.987833,1.583661,-0.661736,1.209421
196000,0.114922,-1.247379,8.889671,1.201982,-0.112117,1.545299
200000,0.172383,-1.312023,8.978256,1.018775,0.513837,1.789574
204000,0.002394,-1.271321,9.026140,0.423356,1.155058,2.568200
208000,-0.011971,-1.340753,9.064447,0.056943,1.735211,2.797207
212000,0.081403,-1.367089,9.105149,-0.217866,2.254295,3.560566
216000,-0.014365,-1.434127,9.069236,-0.431606,3.093989,4.094917
220000,-0.035913,-1.431733,8.923190,-0.675881,3.261928,4.491864
224000,-0.081403,-1.429338,8.983045,-0.950690,2.697043,5.148353
228000,-0.093374,-1.434127,8.973468,-1.072828,1.781012,5.652169
232000,0.014365,-1.527501,9.016563,-1.149163,1.582539,6.323925
236000,0.205901,-1.395820,8.889671,-1.149163,1.582539,6.446063
240000,-0.076614,-1.242591,8.599973,-3.423972,-5.043415,4.705605
244000,0.584185,-1.276109,9.253590,-3.515576,1.781012,5.316291
248000,0.567426,-1.465251,8.743625,-2.706415,1.399333,5.575833
252000,0.435745,-1.398214,8.808268,-3.210232,1.948951,4.934612
256000,0.469264,-1.374272,8.676587,-3.881988,1.826814,4.339192
260000,0.521936,-1.403002,8.765172,-4.324736,2.071089,3.560566
264000,0.399832,-1.434127,8.585608,-4.736950,2.116890,3.606368
268000,0.244209,-1.484405,8.358158,-4.843820,0.330631,3.255223
272000,0.325611,-1.419762,8.664616,-7.943057,-4.051049,1.942245
276000,0.509965,-1.604115,8.796297,-7.149163,-3.654102,1.545299
280000,0.708684,-1.520318,8.655039,-7.820919,-2.112118,0.629268
284000,0.622492,-1.525106,8.566454,-9.301835,-2.218988,-0.714243
288000,0.347159,-1.707066,8.571242,-9.225499,-1.302957,-0.775312
292000,0.265756,-1.771709,8.559271,-8.859087,-3.654102,-1.385999
296000,0.318429,-1.769315,8.580819,-8.935423,-4.982347,-1.706609
300000,0.251391,-1.869871,8.456321,-10.004126,-6.661736,-2.332564
304000,-0.076614,-1.790863,8.248025,-11.194965,-13.364026,-3.935617
308000,0.478840,-2.121263,8.829816,-10.935423,-5.654102,-2.271495
312000,0.184354,-2.164358,9.085996,-12.309468,-2.936545,-2.011953
316000,0.186748,-2.231396,9.059659,-11.881988,-2.081583,-2.134090
320000,0.064643,-2.262521,9.117120,-11.393438,-1.654102,-1.767678
324000,0.033519,-2.248155,9.270349,-12.187331,-3.241888,-2.256228
328000,0.105345,-2.346318,9.258378,-11.668247,-3.379293,-1.905083
332000,0.079009,-2.446874,9.416395,-10.798018,-1.684637,-1.691342
336000,0.126893,-2.542642,9.454702,-9.698782,1.032921,-1.065388
340000,0.162806,-2.489970,9.430760,-8.798018,1.719944,-1.111190
344000,0.174777,-2.415750,9.418790,-7.271301,3.277195,-1.263861
348000,0.019154,-2.308010,9.385271,-6.110995,3.429867,-1.385999
352000,0.026336,-2.202666,9.138668,-5.057561,2.468035,-1.798213
356000,-0.062249,-2.240973,8.947132,-4.691149,1.261928,-2.011953
360000,-0.131681,-2.205060,8.961497,-4.798018,0.254295,-2.240961
364000,-0.138864,-2.173935,8.889671,-4.889622,-0.051049,-2.714243
368000,0.150835,-2.123657,8.803479,-5.607179,1.353531,-3.279129
372000,-0.237026,-2.154782,8.602366,-5.546110,3.216127,-2.637907
376000,-0.440533,-2.202666,8.329428,-5.286569,2.620707,-1.340197
380000,-0.275333,-2.226608,8.401254,-6.217866,1.231394,-0.805846
384000,-0.313640,-2.217031,8.422802,-6.660614,-0.112117,-0.485235
388000,-0.268151,-2.224213,8.310274,-7.317102,-1.272423,-0.332564
392000,-0.272939,-2.217031,8.446744,-8.004126,-2.967079,-0.042487
396000,-0.304064,-2.322376,8.616732,-8.843820,-4.203721,0.094917
400000,-0.227449,-2.468422,8.537724,-9.454507,-4.081583,0.659803
404000,-0.026336,-2.410961,8.750807,-9.622446,-0.799140,1.896444
408000,-0.095768,-2.485181,8.851364,-8.813286,-1.318224,1.743772
412000,0.026336,-2.559402,8.853758,-8.813286,-1.028148,2.018581
416000,0.227449,-2.578555,8.894460,-7.683515,2.406966,2.614001
420000,0.304064,-2.489970,8.860941,-6.843820,5.139791,2.629268
424000,0.215478,-2.389413,8.571242,-6.599545,8.208493,2.461329
428000,0.119710,-2.197877,8.626308,-7.485042,8.926050,2.262856
432000,0.067038,-2.267309,8.458714,-7.973591,9.185592,2.308658
436000,-0.004788,-2.114080,8.398860,-8.523210,10.330630,2.415528
440000,-0.227449,-1.898602,8.003817,-9.851454,8.880248,2.155986
444000,0.208296,-1.862689,8.051701,-10.126263,12.498569,2.827742
448000,0.000000,-1.836353,7.704541,-11.485042,12.437500,3.209421
452000,-0.088585,-1.606509,7.673417,-11.790385,14.300096,2.995681
456000,-0.213084,-1.582567,7.058106,-14.187331,10.758111,2.690337
460000,-0.304064,-1.489193,7.132327,-17.866720,2.864982,1.194154
464000,-0.241814,-1.601721,7.436390,-19.881987,2.956585,1.163620
468000,-0.387861,-1.479617,7.259220,-21.881987,-2.005247,0.949879
472000,-0.337582,-1.510741,7.426814,-24.095728,-6.112117,0.384994
476000,-0.330400,-1.733402,7.690176,-25.057560,-8.829675,0.384994
480000,-0.191536,-1.924938,7.524976,-25.286568,-12.081584,0.033849
484000,-0.129287,-2.011129,7.603985,-25.393438,-16.310591,-0.897449
488000,-0.316035,-2.111686,7.517793,-27.805651,-20.906012,-2.164625
492000,-0.478840,-2.217031,7.738060,-31.790382,-28.982347,-4.302029
496000,-0.648829,-2.422932,8.403648,-34.660614,-35.348759,-4.912716
500000,-0.940921,-2.631228,8.884883,-37.805653,-42.295322,-5.355464
504000,-0.931344,-2.861071,9.493010,-38.843819,-46.707539,-4.027220
508000,-0.811634,-3.129222,10.019734,-38.309467,-48.677002,-2.210426
512000,-0.545878,-3.335123,10.484209,-35.851452,-48.463264,-0.760045
516000,-0.447716,-3.409343,10.809821,-33.210232,-46.509064,1.301024
520000,-0.244209,-3.435679,11.221623,-31.256031,-43.883110,2.339192
524000,-0.069432,-3.497929,11.473015,-28.996490,-37.562500,3.911711
528000,-0.208296,-3.423708,11.458650,-26.675880,-30.264790,5.621635
532000,-0.201113,-3.327940,11.374852,-24.981224,-23.669371,7.636902
536000,-0.141258,-3.055001,11.276690,-23.805651,-18.554867,9.301023
540000,0.505177,-2.810793,11.611878,-21.851452,-5.440361,11.301023
544000,0.737414,-2.434903,11.592725,-18.767483,3.948951,11.530031
548000,0.826000,-2.176329,11.463438,-13.775117,14.529103,12.369726
552000,0.766145,-1.884237,11.111490,-9.958323,20.574905,12.476596
556000,0.577003,-1.795651,10.690110,-5.500309,23.597805,12.980413
560000,0.591368,-1.721431,10.352529,-1.958324,26.132156,12.873543
564000,0.459687,-1.630451,10.029311,0.957707,26.071089,12.384994
568000,0.497994,-1.613692,9.785102,3.492058,25.231394,11.636902
572000,0.500388,-1.424550,9.289502,5.675264,26.620707,10.278123
576000,0.342371,-1.273715,9.169792,5.583661,27.032921,9.133085
580000,0.239420,-1.292869,8.844181,6.408089,26.071089,8.644535
584000,-0.079009,-1.094150,8.774749,5.263051,21.872616,7.545299
588000,-0.016759,-1.180341,8.676587,6.820302,20.269562,7.270490
592000,-0.057461,-1.154005,8.451532,7.430989,16.025288,6.583467
596000,0.019154,-1.134852,8.295909,9.171448,12.941318,5.621635
600000,0.031125,-1.132457,8.171411,10.347020,9.017653,4.155986
604000,0.074220,-1.132457,8.013393,11.614196,5.903150,2.659803
608000,-0.174777,-0.974440,7.833828,11.492058,2.330631,1.423162
612000,-0.160412,-0.948104,7.836222,10.682898,1.842081,0.690337
616000,-0.471658,-0.861913,7.850587,9.034042,2.345898,1.285757
620000,-0.778116,-0.847547,8.195353,7.079844,3.139791,3.148352
624000,-0.782904,-0.864307,8.317456,6.148546,5.490936,6.003314
628000,-0.749385,-0.790087,8.619126,5.904272,9.552004,9.102551
632000,-0.577003,-0.679953,8.693346,6.514959,14.956584,13.255222
636000,-0.438139,-0.627281,8.729259,6.988241,21.887882,17.224689
640000,-0.332794,-0.689530,8.561666,8.347020,27.872616,21.331558
644000,-0.481235,-0.536301,8.293514,7.690531,29.155058,23.774307
648000,-0.339977,-0.347159,8.123527,6.499691,28.941317,26.354460
652000,-0.268151,-0.198719,8.099585,5.186715,30.177958,29.285757
656000,-0.035913,-0.016759,8.130709,3.079844,31.322996,31.438429
660000,0.153229,0.174777,8.408437,0.179081,32.193226,32.873543
664000,0.440533,0.438139,8.686164,-2.202598,33.903149,33.728504
668000,0.536301,0.586579,8.753201,-2.996492,34.498569,34.659801
672000,0.629675,0.790087,8.937555,-3.088094,35.322998,35.759041
676000,0.770933,0.869095,8.858546,-2.248400,35.964218,36.812473
680000,0.847547,0.833182,8.738836,-0.660614,33.811546,37.117817
684000,1.221043,0.888249,8.243237,0.743966,27.506203,36.125454
688000,1.249773,1.393425,8.240842,-1.897255,23.689409,33.407894
692000,1.594538,1.537078,8.221688,0.713432,26.223761,33.087284
696000,1.436521,1.601721,7.951144,-0.645346,23.032921,30.980413
700000,1.582567,1.520318,7.984663,-0.798018,21.521469,28.659803
704000,1.436521,1.448492,8.080431,-0.248400,18.498569,26.369726
708000,1.513135,1.558625,8.324639,0.866104,18.162691,24.965147
712000,1.675941,1.656788,8.578424,4.347020,23.460402,23.728506
716000,1.230620,1.594538,8.554482,6.499691,24.040554,22.339193
720000,1.154005,1.635240,8.508993,8.789768,23.490936,21.209421
724000,1.007959,1.608904,8.327033,10.713432,24.406965,20.736139
728000,0.763750,1.697489,8.118738,10.438622,24.391699,20.033850
732000,0.478840,1.802834,7.881712,8.453890,22.483301,19.331558
736000,0.217872,1.826776,7.958326,6.087478,21.460402,19.316292
740000,0.227449,1.951274,7.716512,3.476791,22.987120,19.865910
744000,0.064643,2.039860,7.520187,0.316485,26.086355,21.301025
748000,-0.067038,2.090138,7.441179,-2.675881,26.284828,22.705605
752000,-0.019154,1.800440,7.546524,-3.133896,23.918417,22.232323
756000,-0.004788,1.692701,7.505822,-1.332370,26.040554,23.041483
760000,0.031125,1.582567,7.381324,-0.507942,24.788645,22.949881
764000,-0.100556,1.565808,7.153875,-0.049927,22.803913,22.537666
768000,-0.052672,1.541866,7.113173,-0.920156,19.567272,21.667437
772000,0.038307,1.491588,7.319075,-2.538476,16.727577,20.965147
776000,0.292093,1.412579,7.831434,-3.576644,17.109257,19.743773
780000,0.397437,1.364695,8.367735,-3.179698,19.139790,18.568201
784000,0.404620,1.371878,8.566454,-1.408705,20.574905,17.056749
788000,0.363919,1.379060,8.592790,0.072211,20.147425,15.133085
792000,0.222661,1.446098,8.659827,0.530226,18.239027,13.224688
796000,0.162806,1.422156,8.635885,0.484424,16.987120,11.850642
800000,-0.067038,1.431733,8.631097,0.484424,14.376431,10.781940
804000,-0.172383,1.448492,8.532935,0.484424,12.116890,9.789574
808000,-0.129287,1.479617,8.482656,0.285951,11.643607,9.804840
812000,-0.023942,1.381454,8.513782,0.316485,12.574905,9.636902
816000,0.143652,1.527501,8.415619,-0.385804,14.956584,9.194154
820000,0.112527,1.491588,8.377312,-0.813286,18.330629,9.606367
824000,0.138864,1.450886,8.322245,-0.736950,21.475668,9.835375
828000,0.210690,1.376666,8.221688,-0.614812,23.246660,9.301023
832000,0.227449,1.386243,7.994239,-1.118629,23.857347,8.064383
836000,0.165200,1.419762,7.898471,-2.110996,22.803913,6.384994
840000,0.167594,1.319205,7.946355,-2.065194,22.055820,5.239955
844000,-0.007183,1.197101,8.001422,-1.088094,20.773378,3.713238
848000,-0.074220,1.082179,7.972692,-0.141530,17.872616,1.911711
852000,-0.105345,1.077391,7.960721,-2.278934,12.559638,-1.233327
856000,0.114922,0.854730,7.955932,-1.408705,13.948951,-2.118823
860000,-0.335188,0.725443,8.180987,-3.714049,8.712310,-4.424167
864000,-0.474052,0.627281,8.518570,-2.263667,9.246661,-5.767678
868000,-0.641646,0.703895,8.377312,-2.278934,8.345898,-6.286762
872000,-0.763750,0.495600,8.501810,-2.248400,4.773379,-6.485235
876000,-0.799663,0.354342,8.346188,-3.240766,1.903150,-7.294395
880000,-0.847547,0.399832,8.458714,-4.462141,0.697043,-8.225694
884000,-0.881066,0.244209,8.482656,-4.538477,1.552005,-8.179892
888000,-0.984017,0.095768,8.365341,-4.981225,1.903150,-8.179892
892000,-1.012747,-0.069432,8.377312,-4.691149,1.994753,-7.905083
896000,-1.113304,-0.160412,8.413225,-5.393438,-0.493797,-9.095922
900000,-1.187524,-0.316035,8.547300,-5.790385,-2.768606,-9.660809
904000,-1.371878,-0.435745,8.664616,-5.301835,-6.112117,-9.874549
908000,-1.273715,-0.509965,9.109938,-4.217866,-7.867843,-10.103557
912000,-1.328782,-0.703895,9.244013,-1.546110,-10.051049,-10.149358
916000,-1.312023,-0.900220,9.145850,1.232516,-11.715171,-10.531037
920000,-1.340753,-1.053449,9.109938,4.652363,-11.425095,-10.698977
924000,-1.719037,-1.053449,8.674192,7.522593,-11.852576,-9.660809
928000,-1.788469,-0.967257,8.360553,5.522593,-15.135018,-8.515770
932000,-1.776498,-0.979228,8.396465,2.637096,-17.654102,-7.645541
936000,-1.563414,-0.988805,8.645462,-0.446873,-18.402195,-6.393632
940000,-1.517924,-1.043872,8.760384,-3.469774,-18.188454,-5.477602
944000,-1.259350,-0.984017,9.131485,-4.294202,-15.287690,-3.492869
948000,-1.206678,-0.998382,9.346964,-4.446874,-12.707538,-1.996686
952000,-1.060631,-1.007959,9.550470,-3.439240,-9.577766,-0.714243
956000,-0.926556,-0.943315,9.703699,-2.767484,-8.982347,0.094917
960000,-0.720655,-0.914585,9.837775,-0.843820,-6.844942,0.522398
964000,-0.715866,-0.864307,9.864111,1.430989,-5.608301,0.614001
968000,-0.653617,-0.708684,9.660604,3.339386,-4.386927,0.720871
972000,-0.555455,-0.744597,9.148245,4.240149,-5.165553,0.186520
976000,-0.457293,-0.711078,8.808268,5.553127,-4.585400,0.094917
980000,-0.328006,-0.711078,8.473080,6.423356,-4.997613,-0.882182
984000,-0.339977,-0.632069,8.152257,6.163814,-6.539598,-1.905083
988000,-0.330400,-0.507571,8.121132,4.240149,-9.654102,-3.966152
992000,-0.083797,-0.603339,8.049306,5.110379,-10.096850,-5.248594
996000,-0.138864,-0.560243,7.989451,2.637096,-13.623569,-6.943251
1000000,-0.232238,-0.627281,7.934384,1.965340,-14.783874,-8.225694
1004000,-0.217872,-0.890643,7.845799,1.873737,-16.310591,-8.882182
1008000,-0.335188,-0.981623,7.855376,1.354653,-17.135019,-9.844014
1012000,-0.296881,-1.067814,7.812280,-0.645346,-19.623568,-11.233328
1016000,-0.411803,-1.199495,8.279149,-2.294202,-20.906012,-11.859282
1020000,-0.641646,-1.338359,8.765172,-1.729316,-21.562500,-11.660809
1024000,-0.632069,-1.225831,8.901642,-1.362904,-21.119751,-11.691342
1028000,-0.454898,-1.359907,8.856153,0.118012,-16.921278,-9.813480
1032000,-0.713472,-1.290475,8.688558,-2.110996,-14.875477,-8.103557
1036000,-0.550666,-1.319205,8.786720,-4.217866,-12.600668,-6.637907
1040000,-0.533907,-1.213860,8.860941,-4.141530,-10.371660,-5.218060
1044000,-0.457293,-1.146823,8.983045,-3.897255,-9.623569,-3.874548
1048000,-0.354342,-0.919373,9.121908,-4.660614,-9.989981,-3.523403
1052000,-0.225055,-0.940921,9.002198,-3.897255,-8.860209,-2.454701
1056000,0.007183,-0.885855,8.865729,-4.782751,-8.218987,-1.950884
1060000,0.165200,-0.811634,8.796297,-3.485041,-6.203721,-1.691342
1064000,0.392649,-0.792481,8.681376,-2.721682,-4.081583,-1.905083
1068000,0.378284,-0.830788,8.501810,-2.172064,-2.249522,-2.683709
1072000,0.227449,-0.878672,8.327033,-1.836186,-3.073950,-3.859281
1076000,0.110133,-0.830788,8.379706,-1.378171,-4.463263,-4.760045
1080000,0.035913,-0.859518,8.372523,-1.591912,-6.661736,-6.011953
1084000,-0.009577,-0.823605,8.458714,-2.446873,-8.829675,-7.111189
1088000,0.033519,-0.763750,8.499416,-2.416339,-10.005248,-8.027221
1092000,-0.035913,-0.869095,8.621520,-1.881988,-10.890744,-8.836381
1096000,-0.126893,-0.931344,8.769960,-0.874354,-12.509065,-9.782946
1100000,-0.112527,-1.010353,8.746018,0.102745,-14.051049,-10.454701
1104000,-0.067038,-0.945710,8.674192,0.469157,-15.180820,-11.538671
1108000,-0.213084,-1.000776,8.695741,0.377554,-15.989981,-12.134090
1112000,-0.225055,-1.063026,8.568848,0.011142,-16.127384,-12.332564
1116000,-0.304064,-1.024718,8.461109,-0.645346,-15.638836,-12.256228
1120000,-0.335188,-1.022324,8.535329,-1.256034,-14.509065,-11.782946
1124000,-0.363919,-1.029507,8.559271,-1.164430,-12.722805,-10.989053
1128000,-0.457293,-1.101333,8.602366,-0.981224,-10.371660,-9.828747
1132000,-0.411803,-1.161188,8.475474,-1.118629,-8.493797,-9.202793
1136000,-0.399832,-1.256956,8.358158,-1.362904,-6.005247,-8.424167
1140000,-0.648829,-1.142034,8.327033,-1.423972,-3.852576,-7.523403
1144000,-0.864307,-1.156399,8.370130,-2.187331,-4.921278,-6.469968
1148000,-0.742203,-1.175553,8.583213,-2.752217,-5.638835,-6.164625
1152000,-0.758962,-1.130063,8.614338,-3.820919,-3.623568,-4.729510
1156000,-0.768539,-1.103727,8.437167,-4.981225,-3.241888,-3.752411
1160000,-0.842759,-1.103727,8.568848,-6.156797,-3.577766,-2.805846
1164000,-0.931344,-1.089362,8.757990,-6.706415,-4.402194,-1.340197
1168000,-0.955287,-1.151611,8.786720,-7.362904,-4.341125,-0.011953
1172000,-1.005565,-1.113304,8.760384,-7.607179,-4.554865,1.835375
1176000,-1.015141,-1.029507,8.645462,-8.370538,-4.982347,3.820108
1180000,-0.972046,-0.960075,8.836999,-9.179698,-4.982347,6.094917
1184000,-0.658405,-0.857124,9.081207,-8.965958,-3.577766,7.911711
1188000,-0.272939,-0.735020,9.220071,-7.240767,-0.585400,9.301023
1192000,0.052672,-0.560243,9.117120,-6.080462,2.819180,9.743772
1196000,0.378284,-0.541090,9.097966,-5.530843,5.872615,9.560566
1200000,0.773327,-0.596156,9.002198,-3.011759,10.620707,8.507131
1204000,0.713472,-0.529119,8.537724,-0.156797,12.040554,5.911711
1208000,0.536301,-0.517148,8.413225,1.568394,10.666508,3.652169
1212000,0.651223,-0.572214,8.228871,3.278317,7.414600,0.232322
1216000,0.727837,-0.749385,8.087613,3.950073,5.475669,-3.828747
1220000,0.442927,-0.830788,7.984663,4.301219,3.032921,-7.385999
1224000,0.193930,-0.893037,7.836222,3.644730,-0.493797,-10.240961
1228000,-0.088585,-1.115698,7.838616,3.232516,-2.890743,-12.393633
1232000,-0.342371,-1.285686,7.905654,2.179081,-4.188453,-13.691342
1236000,-0.754174,-1.400608,8.020576,0.652363,-6.066316,-13.889816
1240000,-1.060631,-1.470040,8.152257,-0.691148,-7.135018,-13.202793
1244000,-1.127669,-1.529895,8.255207,-2.065194,-6.325858,-11.615006
1248000,-1.419762,-1.565808,8.379706,-4.569011,-5.318224,-9.584473
1252000,-1.374272,-1.733402,8.468291,-6.584278,-2.600667,-6.851647
1256000,-1.443704,-1.810017,8.602366,-8.538477,-0.646469,-4.698976
1260000,-1.379060,-1.905785,8.769960,-10.202599,1.429867,-1.966151
1264000,-1.321599,-1.941698,8.920795,-11.271301,4.162692,-0.073022
1268000,-1.316811,-2.140416,9.267955,-11.683515,7.445135,2.247589
1272000,-1.189918,-2.111686,9.452309,-11.210233,10.376431,3.636902
1276000,-1.170765,-2.080561,9.612720,-9.607179,13.353531,4.675070
1280000,-1.185130,-2.073379,9.813833,-7.744583,16.071089,6.003314
1284000,-1.096544,-1.953669,9.701305,-6.813286,19.643608,7.194154
1288000,-1.130063,-1.865083,9.648633,-4.935423,20.513836,7.697971
1292000,-1.053449,-1.798046,9.782708,-3.423972,20.727577,7.926979
1296000,-0.984017,-1.752556,9.629479,-1.561377,19.719944,7.239955
1300000,-0.972046,-1.637634,9.346964,0.698165,16.819180,6.522398
1304000,-0.981623,-1.561020,9.191340,2.316485,13.689409,5.850643
1308000,-0.914585,-1.417367,8.832211,3.797401,10.422234,5.102551
1312000,-0.888249,-1.345541,8.456321,4.682898,8.987119,5.041482
1316000,-0.981623,-1.321599,8.255207,4.957707,7.445135,4.552933
1320000,-0.960075,-1.233014,7.999028,4.438623,5.918417,4.430795
1324000,-0.909797,-1.240196,7.876924,3.171447,4.208493,4.919345
1328000,-0.715866,-1.280898,7.773973,2.163814,3.903150,4.995681
1332000,-0.538695,-1.228225,7.697359,0.606562,4.269562,5.392627
1336000,-0.565032,-1.180341,7.723695,-1.133896,4.620707,5.468963
1340000,-0.464475,-1.242591,7.632715,-2.278934,6.055821,5.407895
1344000,-0.438139,-1.216254,7.671022,-3.469774,7.475669,5.652169
1348000,-0.538695,-1.185130,7.702147,-5.378171,7.292463,5.499497
1352000,-0.581791,-1.125275,7.953538,-7.759851,5.994753,5.239955
1356000,-0.634463,-1.163582,8.171411,-8.813286,3.842081,5.560566
1360000,-0.725443,-1.177947,8.276755,-8.141530,0.910783,5.820108
1364000,-0.648829,-1.197101,8.248025,-8.172065,-2.524331,5.881177
1368000,-0.586579,-1.209072,8.377312,-8.141530,-5.196087,5.972780
1372000,-0.385466,-1.216254,8.619126,-8.416339,-7.440361,5.835375
1376000,-0.363919,-1.326388,8.774749,-8.034659,-8.386927,5.209421
1380000,-0.608127,-1.393425,9.011775,-5.958323,-10.264790,5.392627
1384000,-0.541090,-1.359907,9.155427,-5.027026,-13.348759,5.331559
1388000,-0.191536,-1.266533,9.021352,-5.744583,-11.379293,5.820108
1392000,-0.167594,-1.302446,9.054871,-6.569011,-7.730438,6.522398
1396000,-0.215478,-1.362301,9.028535,-5.362904,-4.997613,7.362093
1400000,-0.052672,-1.371878,8.975863,-4.370538,-3.012881,7.239955
1404000,0.079009,-1.268927,8.975863,-3.866720,-0.906011,7.346826
1408000,0.007183,-1.209072,9.040505,-4.202599,-0.432728,6.766673
1412000,0.095768,-1.165976,8.992621,-3.698782,-0.280056,6.232322
1416000,0.069432,-1.115698,9.054871,-3.607178,-0.386927,5.575833
1420000,0.088585,-1.053449,8.863335,-3.668247,0.040554,4.812475
1424000,0.088585,-0.976834,8.880095,-4.004126,-0.814408,4.293391
1428000,0.131681,-0.972046,8.786720,-3.912522,-2.295324,3.209421
1432000,0.263362,-0.960075,8.688558,-3.469774,-4.371659,1.957513
1436000,0.318429,-0.940921,8.774749,-2.920156,-5.944179,0.583467
1440000,0.416591,-0.962469,8.705317,-2.324736,-7.165553,-0.851648
1444000,0.641646,-1.089362,8.638280,-1.439240,-6.570133,-2.561571
1448000,0.435745,-1.113304,8.310274,-1.301835,-6.875476,-4.622640
1452000,0.416591,-1.063026,8.106767,-1.866720,-6.661736,-6.485235
1456000,0.256180,-1.106121,8.101978,-2.340003,-5.760972,-7.462335
1460000,0.057461,-1.161188,8.044518,-3.256034,-6.554865,-8.256227
1464000,-0.105345,-1.240196,8.228871,-3.652980,-6.906011,-8.637908
1468000,-0.256180,-1.259350,8.269572,-4.278934,-7.257155,-8.485235
1472000,-0.292093,-1.340753,8.372523,-4.599545,-6.997613,-7.569205
1476000,-0.174777,-1.441309,8.324639,-4.492675,-5.211354,-6.836380
1480000,-0.158017,-1.482011,8.269572,-4.950690,-2.722805,-6.256227
1484000,-0.177171,-1.453280,8.154651,-6.370538,-0.768606,-6.011953
1488000,-0.277727,-1.551443,8.185776,-7.912522,0.223760,-5.691342
1492000,-0.366313,-1.544260,8.403648,-8.706415,0.758111,-5.156991
1496000,-0.596156,-1.620875,8.535329,-8.874354,1.093989,-4.561571
1500000,-0.600945,-1.640028,8.678981,-8.630079,0.666508,-3.553938
1504000,-0.545878,-1.594538,8.836999,-8.080462,0.101623,-3.202793
1508000,-0.478840,-1.711854,8.863335,-7.378171,-0.005247,-2.897449
1512000,-0.397437,-1.728614,8.880095,-6.706415,-0.264789,-2.836380
1516000,-0.344765,-1.750161,9.109938,-5.714049,-1.196087,-3.416533
1520000,-0.280122,-1.707066,9.150639,-4.446874,-2.432728,-3.889816
1524000,-0.433351,-1.747767,9.050082,-3.500308,-3.547232,-4.179892
1528000,-0.428562,-1.848324,9.313444,-1.988858,-4.753339,-4.271495
1532000,-0.430956,-1.927332,9.349358,-0.630080,-5.379293,-4.347831
1536000,-0.483629,-1.845930,9.351752,0.606562,-5.241889,-4.454701
1540000,-0.481235,-1.798046,9.301474,1.659997,-4.615934,-4.271495
1544000,-0.531513,-1.793257,9.200917,2.972974,-3.425095,-3.691342
1548000,-0.490811,-1.831564,8.963891,3.018775,-2.066316,-2.866915
1552000,-0.442927,-1.812411,9.016563,2.988241,-0.585400,-2.210426
1556000,-0.433351,-1.757344,8.894460,2.682898,1.307730,-1.859281
1560000,-0.476446,-1.731008,8.999804,2.438623,2.498570,-1.218060
1564000,-0.466869,-1.697489,8.908825,2.698165,3.124524,-0.698976
1568000,-0.404620,-1.659182,8.813056,2.576027,4.498569,-0.515770
1572000,-0.447716,-1.570596,8.746018,2.194348,5.368799,0.278123
1576000,-0.500388,-1.436521,8.520964,1.751600,5.307730,0.843009
1580000,-0.497994,-1.379060,8.434772,1.110379,4.605440,1.407894
1584000,-0.339977,-1.300052,8.391677,0.133279,4.651241,1.865910
1588000,-0.193930,-1.297657,8.343793,-0.996492,4.926051,1.484230
1592000,-0.059855,-1.230620,8.250419,-2.217866,4.758111,1.133085
1596000,0.050278,-1.252167,8.291121,-3.393438,4.559639,0.003314
1600000,0.019154,-1.321599,8.451532,-3.714049,4.391699,-0.882182
1604000,0.038307,-1.364695,8.415619,-3.836186,3.735211,-1.782945
1608000,-0.062249,-1.395820,8.408437,-3.240766,2.742844,-3.019587
1612000,-0.117316,-1.472434,8.398860,-2.660614,1.689409,-4.088289
1616000,-0.141258,-1.477222,8.453926,-2.248400,0.956585,-5.248594
1620000,-0.186748,-1.486799,8.686164,-1.958324,-0.509064,-6.118823
1624000,-0.256180,-1.589750,8.956709,-1.439240,-1.623568,-6.683709
1628000,-0.292093,-1.606509,9.215282,-0.553744,-1.776240,-7.034853
1632000,-0.421380,-1.656788,9.035717,0.774501,-1.654102,-6.805846
1636000,-0.361524,-1.635240,9.112331,1.217249,-0.142652,-6.042487
1640000,-0.354342,-1.671153,8.975863,1.751600,1.475669,-5.156991
1644000,-0.217872,-1.661576,8.892065,2.347020,4.010020,-4.714243
1648000,-0.361524,-1.630451,8.904037,3.766867,4.880249,-3.981419
1652000,-0.960075,-1.805228,9.186552,8.820302,-0.799140,-4.240961
1656000,-0.505177,-1.580173,8.705317,9.782134,-1.073950,-3.340197
1660000,-0.114922,-1.568202,8.477868,5.614195,-1.730438,-3.966152
1664000,-0.203507,-1.721431,8.451532,2.667631,1.063455,-4.256228
1668000,-0.337582,-1.821988,8.422802,0.957707,3.277195,-4.011953
1672000,-0.622492,-1.783680,8.549694,-0.431606,1.399333,-4.011953
1676000,-0.560243,-1.819593,8.863335,-0.859087,-0.692270,-4.134090
1680000,-0.440533,-1.812411,9.133880,-0.599545,-1.058682,-4.271495
1684000,-0.397437,-1.795651,9.217676,-0.080461,-0.341125,-4.424167
1688000,-0.469264,-1.817199,9.160215,0.408088,-0.310591,-4.515770
1692000,-0.407014,-1.831564,9.114726,1.354653,0.803913,-5.187525
1696000,-0.605733,-1.829170,8.925584,1.705798,1.811547,-4.653174
1700000,-0.816423,-1.776498,9.097966,2.072211,2.177959,-4.225693
1704000,-0.823605,-1.824382,9.129091,2.972974,4.055821,-3.126457
1708000,-0.775721,-1.742979,9.148245,3.980608,6.284829,-1.798213
1712000,-0.751779,-1.640028,9.026140,4.255417,8.376431,-0.790579
1716000,-0.574608,-1.587356,8.829816,4.347020,10.254294,0.201787
1720000,-0.418985,-1.474828,8.664616,3.980608,12.116890,0.705604
1724000,-0.531513,-1.446098,8.585608,3.614195,12.864982,1.010948
1728000,-0.670376,-1.369483,8.532935,2.972974,12.376431,1.468963
1732000,-0.641646,-1.357512,8.540117,2.606562,10.926050,1.728505
1736000,-0.524330,-1.350330,8.516175,2.240149,9.368798,2.018581
1740000,-0.476446,-1.233014,8.516175,2.087478,8.529103,2.232322
1744000,-0.442927,-1.288081,8.485051,1.583661,7.994752,2.171253
1748000,-0.337582,-1.165976,8.501810,1.537859,7.139791,2.308658
1752000,-0.184354,-1.053449,8.633492,1.415722,6.712310,2.186520
1756000,0.076614,-1.161188,8.616732,1.995875,7.872615,2.110184
1760000,0.083797,-1.197101,8.599973,3.034043,9.338264,1.407894
1764000,0.033519,-1.154005,8.683769,3.568394,9.903150,0.155986
1768000,-0.119710,-1.256956,8.935161,5.369921,9.185592,-0.821113
1772000,-0.052672,-1.328782,9.066842,7.919539,10.055821,-1.538671
1776000,0.014365,-1.319205,9.090784,9.049310,12.422234,-2.332564
1780000,0.292093,-1.589750,9.210494,12.331753,21.277195,-0.882182
1784000,-0.579397,-1.343147,8.384495,12.102745,18.727577,-2.210426
1788000,-0.675165,-1.127669,8.623915,10.285952,16.147425,-4.195159
1792000,-0.457293,-1.316811,8.248025,11.125646,16.803913,-2.973785
1796000,-0.584185,-1.266533,8.305486,10.316485,15.231394,-3.889816
1800000,-0.725443,-1.309628,8.420407,10.087478,15.552004,-2.698976
1804000,-0.758962,-1.201889,8.291121,9.079844,15.964218,-2.011953
1808000,-0.742203,-1.142034,8.276755,8.133280,17.261929,-1.279129
1812000,-0.785298,-1.084573,8.125920,7.186714,18.849714,-0.011953
1816000,-0.782904,-1.063026,8.192958,5.690531,20.574905,1.041482
1820000,-0.763750,-0.981623,8.154651,4.927173,20.391699,1.499497
1824000,-0.677559,-1.019930,8.264784,4.911905,19.032921,1.545299
1828000,-0.672771,-0.974440,8.362947,5.018775,16.284828,1.194154
1832000,-0.550666,-0.852336,8.384495,4.682898,13.475668,0.369726
1836000,-0.481235,-0.998382,8.226477,4.133279,11.979486,-0.622640
1840000,-0.426168,-0.988805,8.075643,4.056943,11.078722,-1.309663
1844000,-0.407014,-1.149217,7.905654,4.072211,10.926050,-2.057755
1848000,-0.464475,-1.175553,7.881712,3.476791,9.552004,-3.218060
1852000,-0.840365,-1.213860,7.843405,2.652363,6.559639,-4.347831
1856000,-1.019930,-1.242591,7.922413,1.598928,1.353531,-4.866915
1860000,-0.900220,-1.249773,8.104373,0.072211,-0.997614,-5.279129
1864000,-0.981623,-1.362301,8.240842,-0.859087,-1.944179,-4.943251
1868000,-1.125275,-1.367089,8.362947,-2.248400,-4.112117,-4.882182
1872000,-1.115698,-1.362301,8.360553,-3.393438,-6.035781,-4.531037
1876000,-1.036689,-1.462857,8.508993,-4.278934,-7.012881,-3.935617
1880000,-1.005565,-1.496376,8.779537,-4.996491,-6.982347,-3.569205
1884000,-0.919373,-1.472434,9.040505,-5.317102,-5.379293,-3.034854
1888000,-1.010353,-1.501164,9.062054,-5.027026,-3.638835,-2.302029
1892000,-1.106121,-1.537078,8.997410,-4.370538,-2.615934,-1.798213
1896000,-1.158794,-1.434127,8.973468,-4.156797,-2.356392,-0.927984
1900000,-1.115698,-1.434127,8.916007,-4.202599,-2.646469,-0.118823
1904000,-0.995988,-1.393425,9.038112,-4.156797,-2.997614,0.415528
1908000,-0.866701,-1.352724,9.059659,-3.683514,-2.799140,0.949879
1912000,-0.687136,-1.290475,9.088389,-2.752217,-1.989980,1.041482
1916000,-0.608127,-1.316811,8.975863,-2.034660,-1.302957,0.812474
1920000,-0.493206,-1.316811,8.868123,-1.088094,-0.661736,0.583467
1924000,-0.423774,-1.343147,8.635885,-0.889621,-0.493797,-0.485235
1928000,-0.438139,-1.213860,8.523358,-1.240766,-1.776240,-1.095922
1932000,-0.519542,-1.177947,8.513782,-1.744583,-2.982346,-1.950884
1936000,-0.732626,-1.276109,8.437167,-2.065194,-5.577766,-2.790579
1940000,-0.814029,-1.175553,8.535329,-1.958324,-7.470896,-2.760045
1944000,-0.770933,-1.170765,8.463503,-2.141530,-8.509065,-2.698976
1948000,-0.727837,-1.192312,8.501810,-2.370538,-8.768606,-2.424167
1952000,-0.684742,-1.101333,8.571242,-2.630080,-8.218987,-1.782945
1956000,-0.672771,-1.027112,8.602366,-3.317102,-7.745705,-1.248594
1960000,-0.543484,-1.043872,8.748413,-3.576644,-6.951812,-1.004319
1964000,-0.368707,-1.072602,8.834604,-2.935423,-5.455629,-0.576838
1968000,-0.354342,-1.125275,8.894460,-1.836186,-2.402194,-0.805846
1972000,-0.172383,-1.218649,8.791509,-0.141530,3.674142,-0.592106
1976000,-0.155623,-1.261744,8.245630,2.041676,7.002387,-0.042487
1980000,-0.632069,-1.213860,8.022970,-2.752217,0.101623,-2.729510
1984000,-0.363919,-1.254562,8.212111,-1.607178,2.239028,-2.973785
1988000,-0.701501,-1.328782,8.147469,-2.340003,0.697043,-3.874548
1992000,-0.715866,-1.462857,8.298303,-1.317102,1.689409,-3.355464
1996000,-0.845153,-1.450886,8.508993,-2.248400,-0.615934,-3.935617
