time_us,ax,ay,az,gx,gy,gz
0,0.038307,-0.328006,8.549694,0.148546,-1.272423,-1.615006
4000,-0.033519,-0.335188,8.453926,-0.126262,-2.127385,-2.500503
8000,-0.002394,-0.407014,8.542512,-0.645346,-2.570133,-2.912716
12000,-0.105345,-0.409408,8.638280,-0.981224,-2.035782,-2.989052
16000,-0.177171,-0.399832,8.535329,-1.378171,-0.997614,-2.912716
20000,-0.256180,-0.452504,8.501810,-1.805652,-0.386927,-2.790579
24000,-0.296881,-0.488417,8.497022,-2.324736,0.361165,-2.500503
28000,-0.366313,-0.488417,8.432379,-2.599545,1.307730,-1.935617
32000,-0.411803,-0.495600,8.386889,-2.599545,2.055821,-1.279129
36000,-0.430956,-0.524330,8.322245,-2.492675,3.216127,-0.317297
40000,-0.447716,-0.478840,8.303091,-2.981224,4.071089,0.430795
44000,-0.395043,-0.519542,8.317456,-3.439240,4.529104,1.209421
48000,-0.280122,-0.404620,8.439561,-3.958324,6.315363,2.094917
52000,-0.241814,-0.512359,8.360553,-4.248401,6.040555,2.705604
56000,-0.169988,-0.483629,8.475474,-4.202599,3.689409,1.896444
60000,-0.021548,-0.505177,8.774749,-3.576644,2.452768,1.621635
64000,0.038307,-0.560243,8.827422,-2.141530,2.193226,1.072016
68000,-0.059855,-0.481235,8.777143,-1.194965,1.414600,0.079650
72000,0.004788,-0.488417,8.647857,-0.904888,0.162692,-0.363098
76000,-0.026336,-0.531513,8.564059,-0.584278,0.300096,-1.019587
80000,-0.023942,-0.562637,8.513782,-0.813286,0.376432,-1.431800
84000,-0.059855,-0.600945,8.427590,-1.027026,-0.814408,-2.149358
88000,-0.110133,-0.627281,8.348581,-1.225499,-1.593034,-2.653174
92000,-0.179565,-0.675165,8.487445,-1.698782,-3.058682,-2.851648
96000,-0.265756,-0.756568,8.623915,-2.233133,-3.425095,-3.202793
100000,-0.301669,-0.751779,8.693346,-2.599545,-3.684637,-2.851648
104000,-0.407014,-0.854730,8.750807,-2.859087,-3.318224,-2.729510
108000,-0.450110,-0.835576,8.614338,-3.561377,-2.997614,-2.515770
112000,-0.438139,-0.869095,8.671799,-4.095729,-2.707537,-2.057755
116000,-0.450110,-0.926556,8.614338,-4.569011,-2.661736,-1.706609
120000,-0.368707,-0.938527,8.657434,-4.752217,-2.432728,-1.584472
124000,-0.366313,-0.976834,8.640674,-5.072827,-2.417461,-1.508136
128000,-0.385466,-1.065420,8.765172,-4.996491,-2.982346,-1.630274
132000,-0.368707,-1.096544,8.853758,-5.088095,-3.913644,-1.553938
136000,-0.497994,-1.268927,8.906430,-4.920156,-4.646469,-1.889816
140000,-0.538695,-1.314417,9.066842,-4.630079,-6.051049,-1.615006
144000,-0.469264,-1.414973,9.229648,-4.324736,-7.486163,-1.889816
148000,-0.471658,-1.556231,9.241618,-3.454507,-8.722805,-1.782945
152000,-0.447716,-1.556231,9.351752,-2.569010,-9.333492,-2.118823
156000,-0.380678,-1.649605,9.493010,-1.622446,-10.203721,-2.149358
160000,-0.390255,-1.692701,9.411607,-0.416339,-10.554866,-2.317297
164000,-0.407014,-1.714248,9.416395,0.194348,-10.829675,-2.592106
168000,-0.208296,-1.774103,9.440337,0.911905,-10.188454,-2.347831
172000,-0.289698,-1.845930,9.533711,1.583661,-8.814408,-2.149358
176000,-0.325611,-1.879448,9.488221,2.148547,-7.638835,-1.828747
180000,-0.423774,-1.987187,9.483433,2.514959,-6.707537,-1.095922
184000,-0.452504,-1.999158,9.361329,1.873737,-5.547232,-0.134090
188000,-0.387861,-1.994370,9.507375,1.476791,-4.341125,0.461329
192000,-0.368707,-2.099715,9.612720,1.446256,-3.058682,0.934612
196000,-0.306458,-2.078167,9.686940,2.209615,-1.241889,1.804841
200000,-0.296881,-2.104503,9.686940,2.850837,0.330631,2.446062
204000,-0.332794,-2.164358,9.528923,3.385188,0.864982,2.919345
208000,-0.251391,-2.169147,9.583989,4.469157,2.025287,3.545299
212000,-0.328006,-2.209848,9.483433,5.324119,2.376432,3.575833
216000,-0.423774,-2.257732,9.586384,5.934806,0.910783,4.003314
220000,-0.881066,-2.068590,9.354146,4.698165,-7.562499,2.751406
224000,0.179565,-2.224213,10.345345,8.347020,1.658875,4.736139
228000,-0.294487,-2.248155,9.725247,10.438622,0.406966,5.407895
232000,-0.129287,-2.138022,9.730036,12.209615,2.010020,5.713238
236000,-0.138864,-2.286463,9.631873,12.942439,2.605440,6.155986
240000,-0.347159,-2.243367,9.533711,14.255417,-0.829675,6.110185
244000,-0.143652,-2.317587,9.648633,17.201982,-2.570133,6.339192
248000,-0.071826,-2.319981,9.816227,19.797401,-3.715171,6.125452
252000,-0.038307,-2.327164,9.739613,21.492058,-6.341125,5.545299
256000,0.011971,-2.324770,9.583989,23.492058,-6.860209,5.316291
260000,0.014365,-2.375048,9.493010,24.667631,-6.203721,5.621635
264000,0.146046,-2.348712,9.222465,25.232517,-3.913644,5.728505
268000,0.210690,-2.197877,8.829816,25.522593,0.101623,5.453696
272000,0.129287,-2.128445,8.401254,25.263052,4.147425,5.896444
276000,0.009577,-2.090138,8.415619,24.377556,4.788646,5.911711
280000,-0.114922,-2.023100,8.233660,23.156181,5.032921,5.972780
284000,-0.165200,-2.085350,8.092402,21.950073,7.521471,6.751406
288000,-0.356736,-1.920150,7.869741,19.598928,10.010019,8.491863
292000,-0.517148,-1.853112,7.572860,16.591295,9.368798,10.354459
296000,-0.435745,-1.798046,7.694964,11.369921,10.040554,11.194154
300000,-0.174777,-1.798046,7.769185,8.927173,13.674142,13.270490
304000,-0.153229,-1.747767,7.982268,5.049310,12.773378,13.865910
308000,-0.062249,-1.690306,8.552089,2.224883,10.590172,13.484230
312000,-0.215478,-1.661576,8.846576,2.362287,0.223760,11.010947
316000,0.706290,-1.750161,9.674969,4.560760,4.254295,10.980413
320000,0.658405,-1.769315,10.321404,4.911905,4.742845,9.392627
324000,0.493206,-1.776498,10.544065,6.438623,0.010020,7.056749
328000,0.363919,-1.814805,10.967838,8.362287,-2.844942,4.736139
332000,0.026336,-1.774103,10.790668,9.934806,-9.547233,2.827742
336000,-0.074220,-1.752556,10.951078,11.629462,-13.287690,2.018581
340000,0.057461,-1.769315,10.896012,13.201982,-13.669370,1.896444
344000,0.081403,-1.697489,10.998962,13.263050,-9.837309,2.904078
348000,-0.016759,-1.951274,11.030087,12.591294,-8.463263,3.026215
352000,0.052672,-1.951274,11.022904,13.079844,-5.852575,4.033849
356000,0.074220,-1.759738,10.967838,12.133279,-3.241888,4.827742
360000,0.258574,-1.649605,10.694899,10.957706,-0.127385,3.789574
364000,0.330400,-1.666364,10.522516,10.545493,1.872615,2.094917
368000,0.050278,-1.731008,10.532093,11.400455,1.490936,0.430795
372000,-0.181959,-2.176329,10.855310,14.056943,-4.051049,-1.630274
376000,-0.304064,-2.545036,11.659762,19.095112,-13.669370,-3.034854
380000,-0.174777,-3.045424,12.713211,26.774502,-21.928911,-5.370731
384000,0.000000,-3.215413,13.611036,34.102745,-26.066317,-7.279129
388000,-0.344765,-3.217807,13.845669,43.293587,-26.341125,-9.538671
392000,-0.445322,-3.280056,14.130578,52.789768,-17.928911,-7.813479
396000,-1.386243,-3.275268,14.030022,54.972973,-25.241888,-8.790579
400000,-1.288081,-3.392584,14.583082,61.858471,-24.692270,-7.309663
404000,-1.264138,-3.313575,14.791378,68.530228,-19.043415,-4.347831
408000,-0.905008,-3.327940,14.611813,75.736336,-9.501431,-0.760045
412000,-0.857124,-3.184288,13.946225,82.301216,-0.096850,1.545299
416000,-0.672771,-2.923320,13.105860,89.324120,5.414600,1.911711
420000,0.035913,-2.789245,12.054806,97.186714,20.880249,6.094917
424000,0.124498,-2.161964,10.409989,97.461525,35.338264,8.155986
428000,0.179565,-1.716643,8.695741,93.385185,45.399334,9.530031
432000,0.002394,-1.702277,7.922413,93.369919,52.971851,11.178886
436000,0.100556,-1.563414,6.976704,93.400459,61.124523,14.049115
440000,0.021548,-1.211466,5.861006,92.576027,65.811546,16.278124
444000,-0.354342,-0.823605,4.570531,87.308853,60.101624,15.652169
448000,0.146046,-0.806846,3.957615,85.598930,63.826817,18.675070
452000,-0.428562,-0.351948,3.224990,75.721069,54.956585,18.293390
456000,-0.306458,-0.107739,3.423708,70.499695,55.460400,20.278124
460000,-0.672771,0.040701,3.581726,62.896641,52.406967,22.720873
464000,-0.940921,0.050278,3.837905,55.705799,43.368797,24.400261
468000,-0.746991,0.090980,3.912126,49.369923,35.109257,27.148354
472000,-0.497994,0.227449,4.393360,42.331753,35.689407,31.087284
476000,-0.306458,0.581791,4.807557,34.667629,28.697042,31.606369
480000,0.162806,0.732626,5.707777,28.392822,19.536737,31.102551
484000,0.902614,0.727837,6.864176,25.812670,16.788645,29.911713
488000,1.240196,0.775721,7.716512,26.301220,15.155058,27.575834
492000,1.441309,0.790087,7.989451,27.629463,11.979486,24.644537
496000,1.434127,0.730232,8.106767,29.522593,8.697042,20.522398
500000,1.151611,0.780510,8.137892,30.713432,9.216126,17.697971
504000,0.955287,0.938527,8.525752,32.988239,12.040554,16.110186
508000,0.684742,1.098939,9.038112,33.339386,16.437500,15.087283
512000,0.785298,1.103727,9.023746,36.056946,23.613073,15.255222
516000,0.574608,1.127669,8.896853,37.889004,28.269562,15.728505
520000,0.469264,1.264138,8.547300,40.316486,33.628342,16.781940
524000,0.495600,1.484405,8.305486,40.835571,37.903149,17.942245
528000,0.438139,1.632846,7.948750,40.255417,41.124523,18.247589
532000,0.196325,1.958457,7.445967,37.782135,37.796280,17.209421
536000,0.423774,1.996764,7.374141,37.675266,39.872616,17.438429
540000,0.007183,2.099715,6.557718,35.125645,35.674141,16.949881
544000,0.057461,2.118869,6.241684,33.934807,36.574905,17.667437
548000,-0.045490,2.011129,6.019023,31.385189,31.032921,16.507132
552000,-0.093374,2.003947,5.966351,27.889006,23.842081,15.026215
556000,-0.184354,1.982399,5.920861,25.095112,21.002386,14.476596
560000,-0.265756,2.114080,6.004658,21.721066,17.109257,13.453695
564000,-0.330400,2.178724,5.959168,19.507326,13.048187,12.705604
568000,-0.457293,2.300828,6.133945,16.087479,7.399333,11.804840
572000,-0.215478,2.353500,6.430826,14.194347,3.338264,11.041482
576000,0.220267,2.360683,6.758832,13.843203,4.193226,10.354459
580000,0.385466,2.319981,6.967127,13.690531,8.681775,9.010947
584000,0.509965,2.516306,6.926425,13.217249,15.384066,8.461329
588000,0.323217,2.650381,6.866570,10.560760,16.483301,6.262856
592000,-0.174777,2.894590,6.596025,10.240149,17.200859,4.430795
596000,-0.514753,3.162740,6.519411,7.003509,17.109257,3.072016
600000,-0.921768,3.098097,6.545747,4.438623,16.864981,2.781940
604000,-1.110910,3.098097,6.555324,1.950073,17.307730,4.033849
608000,-1.501164,3.016694,6.639122,-1.988858,11.399332,3.148352
612000,-1.343147,2.896984,6.627151,-4.034659,10.880248,4.461329
616000,-1.347936,2.806004,6.928820,-5.698782,13.445134,5.728505
620000,-1.668759,2.829947,6.988675,-8.569011,12.651241,6.583467
624000,-1.810017,2.628834,7.273585,-10.340003,7.918417,6.323925
628000,-2.111686,2.398990,7.309498,-11.897255,3.994753,7.530032
632000,-2.272097,2.403779,7.419631,-13.454507,1.155058,9.194154
636000,-2.298434,2.475605,7.702147,-15.820920,-3.211354,10.690337
640000,-2.126051,2.444480,8.221688,-17.194963,-6.585400,11.957512
644000,-1.798046,2.339135,8.566454,-16.782751,-8.890744,12.858275
648000,-1.628057,2.327164,8.805874,-15.927789,-9.455629,13.972779
652000,-1.460463,2.343924,8.784326,-15.607179,-9.883110,15.026215
656000,-1.149217,2.403779,8.990228,-15.301835,-10.677003,15.530032
660000,-0.699107,2.576161,8.920795,-15.408706,-9.562500,15.545299
664000,-0.134075,2.650381,9.224859,-13.805652,-2.906011,16.033850
668000,-0.371101,2.815581,8.839393,-14.233132,-3.547232,15.133085
672000,-0.050278,2.894590,9.083601,-14.599545,-6.264789,13.102551
676000,0.174777,2.808398,8.906430,-13.698781,-6.524331,12.171253
680000,0.287304,2.968810,8.877700,-12.767484,-4.142652,10.949879
684000,0.146046,3.222595,8.638280,-13.759851,-4.417461,9.881176
688000,0.316035,3.189077,8.623915,-14.309468,-2.600667,9.133085
692000,0.349553,3.088520,8.652645,-13.149163,-0.890743,8.583467
696000,0.368707,3.153164,8.355764,-11.958323,-1.654102,7.102551
700000,0.371101,3.373430,8.097190,-11.744583,-2.188453,5.682703
704000,0.282516,3.574543,7.917625,-12.706416,-1.989980,4.125452
708000,0.272939,3.562572,7.869741,-13.515576,-1.883110,2.888810
712000,0.373495,3.610456,7.862558,-13.622445,-0.875476,1.759039
716000,0.227449,3.689465,7.809886,-14.187331,1.322997,0.262856
720000,0.399832,3.608062,7.714118,-13.714049,5.597806,0.369726
724000,-0.263362,3.646369,7.635109,-16.034658,3.597806,-1.569205
728000,-0.009577,3.612850,8.039729,-13.362905,8.697042,-1.004319
732000,0.031125,3.603274,8.051701,-12.065194,12.101623,-1.218060
736000,0.045490,3.615245,8.106767,-11.851454,14.513836,-2.592106
740000,-0.512359,3.672705,7.900866,-13.317103,13.231394,-4.164625
744000,-0.711078,3.512294,7.999028,-13.271300,11.903150,-5.218060
748000,-1.323994,3.404555,7.987057,-12.523210,9.903150,-5.187525
752000,-1.666364,3.303998,8.200141,-10.965958,6.040555,-4.882182
756000,-1.910573,3.186682,8.401254,-9.637713,1.536737,-3.874548
760000,-1.807622,3.126827,8.518570,-8.401072,0.177959,-2.821113
764000,-1.805228,3.102885,8.626308,-7.118629,0.681776,-1.462335
768000,-1.714248,3.143587,8.635885,-4.523210,2.116890,0.293391
772000,-1.460463,3.052607,8.504205,-0.920156,4.498569,2.491864
776000,-1.173159,3.229778,7.967903,1.675264,7.658875,3.972780
780000,-0.909797,3.428497,7.551312,1.736333,10.559638,5.026215
784000,-0.603339,3.452439,7.307104,0.698165,12.758111,5.713238
788000,-0.399832,3.433285,7.161057,0.194348,13.887882,5.896444
792000,-0.169988,3.543418,7.003040,0.163814,13.948951,5.056749
796000,-0.198719,3.531447,6.880936,-1.042293,12.468035,4.140719
800000,-0.526724,3.801992,6.591237,-4.828553,5.231394,1.560566
804000,0.129287,3.615245,7.031770,-5.546110,6.055821,1.530032
808000,-0.050278,3.483563,6.754043,-6.706415,4.544371,0.598734
812000,0.026336,3.548207,6.895301,-9.179698,1.399333,-1.385999
816000,0.265756,3.514688,7.295133,-11.378171,-0.096850,-3.034854
820000,0.411803,3.478775,7.759608,-11.286569,-0.738072,-5.309663
824000,0.409408,3.464410,8.008605,-9.943057,-1.623568,-7.309663
828000,0.227449,3.533842,8.003817,-9.988858,-4.493797,-9.569205
832000,0.363919,3.505111,8.010999,-10.233133,-6.295323,-11.905083
836000,0.287304,3.459621,7.975086,-10.248401,-6.463263,-13.737144
840000,0.146046,3.447650,7.783550,-10.126263,-6.264789,-15.416533
844000,0.004788,3.337517,7.632715,-10.340003,-5.822041,-16.408899
848000,-0.081403,3.327940,7.505822,-10.569011,-4.524331,-17.279127
852000,-0.258574,3.292027,7.335834,-10.889622,-3.516698,-17.492868
856000,-0.450110,3.241749,7.084443,-11.057561,-3.135018,-18.179892
860000,-0.555455,3.181894,6.993463,-13.179698,-5.302957,-19.538670
864000,-0.268151,2.844312,7.026982,-13.561378,-4.585400,-20.164623
868000,-0.715866,2.655170,6.986280,-14.584277,-7.562499,-21.599739
872000,-1.015141,2.552219,7.402872,-14.828553,-10.600668,-22.393631
876000,-1.237802,2.178724,7.668628,-14.370538,-12.447996,-22.103556
880000,-1.577779,2.078167,8.020576,-13.652980,-14.890744,-21.828747
884000,-1.704672,1.879448,8.166622,-13.988858,-17.989981,-21.294395
888000,-1.771709,1.795651,8.518570,-13.591912,-18.738071,-19.889814
892000,-1.714248,1.625663,8.935161,-12.599545,-17.547232,-18.225693
896000,-1.690306,1.501164,9.160215,-11.439240,-18.325859,-17.645540
900000,-1.448492,1.462857,9.320627,-10.156797,-17.867844,-16.668442
904000,-1.244985,1.417367,9.373300,-9.607179,-14.936545,-16.057755
908000,-1.230620,1.453280,9.459491,-8.828553,-10.829675,-15.706610
912000,-1.254562,1.417367,9.315839,-8.416339,-7.883110,-15.218060
916000,-1.072602,1.331176,9.320627,-7.072827,-4.844942,-14.927984
920000,-1.089362,1.180341,9.169792,-6.065194,-2.096850,-14.973785
924000,-1.170765,1.168370,9.083601,-5.347637,-0.493797,-15.111190
928000,-1.364695,1.130063,9.064447,-4.843820,0.590173,-15.202793
932000,-1.513135,1.096544,8.997410,-4.172065,1.506203,-14.515770
936000,-1.616086,1.043872,9.016563,-3.805652,2.300096,-13.294396
940000,-1.680730,1.046266,8.918402,-3.805652,2.391699,-12.347831
944000,-1.805228,1.127669,8.911219,-4.859087,1.506203,-11.477602
948000,-1.814805,1.146823,8.853758,-5.744583,-0.432728,-10.439434
952000,-1.838747,1.165976,8.892065,-6.217866,-2.615934,-9.767678
956000,-1.728614,1.134852,8.868123,-6.065194,-4.814407,-8.744778
960000,-1.618480,1.103727,8.872911,-6.462141,-6.936545,-8.332563
964000,-1.398214,1.098939,8.774749,-7.011759,-8.707538,-8.408899
968000,-1.529895,1.163582,8.944737,-7.271301,-11.348759,-8.439434
972000,-1.628057,1.180341,9.050082,-7.164431,-13.806774,-7.905083
976000,-1.620875,1.228225,9.165004,-6.523210,-15.867843,-7.340197
980000,-1.690306,1.216254,9.162610,-5.790385,-16.692270,-6.363098
984000,-1.534683,1.125275,9.074024,-5.256034,-16.661736,-5.508136
988000,-1.525106,1.012747,8.781932,-4.660614,-15.119752,-4.347831
992000,-1.575385,0.993594,8.698134,-5.149163,-13.913645,-3.355464
996000,-1.520318,0.995988,8.511387,-5.714049,-12.554866,-2.760045
1000000,-1.412579,0.964863,8.702923,-6.233133,-12.173186,-1.981419
1004000,-1.414973,0.972046,8.899248,-5.805653,-11.165553,-1.889816
1008000,-1.350330,0.957681,8.889671,-4.965958,-10.341125,-1.477602
1012000,-1.319205,0.866701,8.839393,-3.851454,-9.989981,-0.866915
1016000,-1.187524,0.622492,8.523358,-2.462140,-8.447996,-0.042487
1020000,-1.144428,0.565032,8.243237,-2.553744,-6.799140,-0.042487
1024000,-1.211466,0.660800,8.099585,-4.294202,-6.799140,0.461329
1028000,-0.921768,0.550666,8.391677,-5.393438,-6.738071,0.278123
1032000,-0.835576,0.605733,8.817844,-5.362904,-4.814407,0.155986
1036000,-0.883460,0.514753,9.102755,-4.523210,-3.928911,-0.088289
1040000,-0.823605,0.596156,9.198523,-4.065194,-3.715171,-0.179892
1044000,-0.787692,0.639252,9.203311,-3.897255,-2.951812,-0.027220
1048000,-0.754174,0.557849,9.296685,-3.668247,-2.249522,0.201787
1052000,-0.885855,0.605733,9.313444,-3.897255,-2.020514,0.720871
1056000,-0.883460,0.462081,9.485827,-3.759850,0.620707,2.339192
1060000,-1.103727,0.588974,9.493010,-2.553744,0.651241,2.904078
1064000,-1.065420,0.588974,9.339781,-1.194965,-0.035782,3.972780
1068000,-0.854730,0.732626,9.428367,-0.920156,0.254295,4.873543
1072000,-0.713472,0.744597,9.153033,-0.401072,3.368799,6.140719
1076000,-0.567426,0.806846,8.980651,0.545493,6.788646,7.255223
1080000,-0.416591,1.015141,8.810662,0.102745,9.719943,7.652170
1084000,-0.354342,0.986411,8.477868,-0.110996,11.582539,8.201787
1088000,-0.225055,1.036689,8.418014,-0.523209,12.834447,7.988047
1092000,-0.354342,1.060631,8.485051,-0.782751,13.200859,7.942246
1096000,-0.375890,1.096544,8.439561,-1.118629,13.002386,7.820108
1100000,-0.351948,0.993594,8.401254,-1.500308,11.933683,7.484231
1104000,-0.296881,1.144428,8.336611,-2.065194,11.048187,6.965147
1108000,-0.229843,0.998382,8.324639,-2.752217,9.918416,5.881177
1112000,-0.265756,0.888249,8.434772,-2.813286,8.590172,4.476597
1116000,-0.452504,0.694318,8.353370,-2.340003,4.437501,2.827742
1120000,-0.514753,0.569820,8.576031,-2.095728,0.010020,1.636902
1124000,-0.667982,0.565032,8.937555,-1.194965,-3.012881,0.675070
1128000,-0.751779,0.519542,9.131485,-0.431606,-6.707537,0.064383
1132000,-0.723049,0.533907,9.148245,0.362287,-8.600668,-0.363098
1136000,-0.754174,0.577003,9.349358,0.957707,-7.425095,0.323925
1140000,-0.694318,0.672771,9.337387,1.537859,-3.959446,1.759039
1144000,-0.768539,0.682347,9.014170,2.072211,-0.081583,3.499497
1148000,-0.644040,0.596156,8.978256,2.682898,4.284829,5.270490
1152000,-0.481235,0.802058,8.578424,2.240149,8.147424,6.049116
1156000,-0.459687,0.916979,8.499416,0.972974,11.032920,6.400261
1160000,-0.531513,1.079785,8.298303,0.453890,11.857347,6.461329
1164000,-0.517148,1.051055,8.228871,0.484424,11.582539,6.247589
1168000,-0.411803,1.024718,8.054094,0.743966,10.849714,5.606368
1172000,-0.304064,1.012747,7.970297,0.805035,9.796279,5.270490
1176000,-0.038307,0.972046,8.391677,1.018775,11.353531,3.911711
1180000,0.050278,1.003170,8.616732,2.499691,14.941318,2.568200
1184000,-0.112527,1.058237,8.602366,2.957707,16.681776,1.117818
1188000,-0.294487,1.106121,8.497022,2.652363,16.574905,-0.271495
1192000,-0.562637,1.211466,8.360553,1.690531,15.796280,-0.821113
1196000,-0.833182,1.233014,8.355764,0.805035,14.758111,-0.851648
1200000,-0.979228,1.290475,8.202535,-0.340003,13.536737,-0.668442
1204000,-0.998382,1.307234,8.264784,-1.423972,13.093989,0.079650
1208000,-0.893037,1.295263,8.063671,-2.569010,14.376431,0.384994
1212000,-0.562637,1.321599,7.879318,-3.943056,16.926050,0.797207
1216000,-0.459687,1.252167,7.824251,-4.798018,19.933683,0.155986
1220000,-0.481235,1.130063,7.757214,-4.675881,21.261929,-1.065388
1224000,-0.780510,1.182736,7.654263,-4.782751,18.803913,-2.592106
1228000,-1.197101,1.115698,7.680599,-5.759851,13.307730,-4.042487
1232000,-1.379060,0.952892,7.876924,-6.828553,7.536737,-5.004319
1236000,-1.438915,0.768539,8.025364,-7.454507,3.307730,-5.065388
1240000,-1.395820,0.615310,8.008605,-8.355270,1.155058,-4.882182
1244000,-1.300052,0.651223,7.982268,-9.775118,0.391699,-4.546304
1248000,-1.498770,0.632069,8.010999,-11.576645,0.132157,-4.179892
1252000,-1.539472,0.634463,8.327033,-13.164432,-0.310591,-3.523403
1256000,-1.690306,0.574608,8.384495,-14.462140,-1.058682,-3.202793
1260000,-2.030283,0.519542,8.425196,-15.943057,-3.715171,-2.363098
1264000,-2.293645,0.270545,8.667010,-17.485041,-8.432729,-0.866915
1268000,-2.398990,0.208296,9.251195,-17.698780,-14.554866,0.949879
1272000,-2.051831,0.134075,10.216059,-15.546111,-17.928911,3.041482
1276000,-1.656788,0.028730,10.977415,-11.790385,-17.211355,4.812475
1280000,-1.422156,0.126893,11.417948,-7.256034,-16.524332,5.774307
1284000,-1.151611,0.328006,11.394006,-3.546110,-14.646469,6.797207
1288000,-1.120486,0.251391,11.140221,-0.462140,-10.539598,7.850643
1292000,-1.067814,0.462081,10.884041,2.560760,-5.348759,9.514764
1296000,-1.043872,0.577003,10.675745,5.110379,-2.157919,11.301023
1300000,-0.981623,0.727837,10.486604,7.095111,-0.280056,12.598734
1304000,-0.689530,0.782904,10.201694,9.675264,2.666508,14.171253
1308000,-0.332794,0.821211,9.770737,12.011142,6.910783,14.797207
1312000,0.004788,0.984017,9.090784,12.820302,10.941318,14.491863
1316000,0.117316,1.079785,8.607155,12.835569,13.109256,13.194154
1320000,0.191536,1.139640,8.216900,13.064577,13.582539,10.644535
1324000,0.079009,1.094150,7.979874,13.217249,11.017653,8.247588
1328000,0.064643,1.086968,7.730877,12.576027,6.483303,4.690337
1332000,0.095768,1.098939,7.568071,10.881371,0.910783,0.690337
1336000,-0.081403,1.079785,7.673417,8.545493,-3.516698,-2.454701
1340000,-0.316035,0.998382,8.020576,6.942440,-8.173186,-4.882182
1344000,-0.586579,0.881066,8.238448,5.522593,-11.425095,-6.424167
1348000,-0.746991,0.914585,8.398860,3.950073,-12.081584,-6.561571
1352000,-1.027112,0.931344,8.408437,1.919539,-12.463263,-6.057755
1356000,-1.273715,0.955287,8.319851,0.301218,-12.341125,-4.698976
1360000,-1.256956,1.060631,8.456321,-1.607178,-10.829675,-3.019587
1364000,-1.015141,1.082179,8.360553,-2.889621,-7.104484,-0.958518
1368000,-0.995988,1.079785,8.243237,-3.500308,-1.898377,0.843009
1372000,-0.847547,1.180341,8.348581,-3.988858,1.429867,2.308658
1376000,-0.615310,1.264138,8.425196,-3.637713,4.483303,3.301024
1380000,-0.486023,1.323994,8.238448,-2.782751,8.269562,3.820108
1384000,-0.462081,1.295263,8.367735,-1.805652,10.284829,4.094917
1388000,-0.330400,1.321599,8.303091,-0.477408,9.628340,3.881177
1392000,-0.215478,1.194707,8.506598,1.156180,8.773378,3.606368
1396000,-0.064643,1.240196,8.588001,3.125646,8.223760,2.858276
1400000,-0.114922,1.233014,8.724471,5.110379,6.055821,1.804841
1404000,0.110133,1.338359,8.614338,7.171447,4.803913,-0.088289
1408000,-0.028730,1.343147,8.664616,8.820302,1.994753,-1.905083
1412000,-0.179565,1.041478,8.255207,14.682898,-0.142652,-2.668442
1416000,-0.167594,1.209072,7.941567,16.911905,-4.921278,-4.408900
1420000,-0.007183,1.350330,7.534553,15.079844,-8.860209,-6.760045
1424000,0.043096,1.369483,7.474698,13.675264,-10.035782,-7.935617
1428000,0.062249,1.347936,7.450756,12.209615,-9.684637,-9.370732
1432000,0.000000,1.321599,7.309498,11.201982,-8.463263,-10.073022
1436000,0.016759,1.259350,7.314286,9.965341,-6.554865,-10.943251
1440000,-0.304064,1.249773,7.331046,6.652363,-6.554865,-12.195160
1444000,-0.723049,1.103727,7.438785,2.377554,-7.394560,-13.126457
1448000,-1.142034,1.051055,7.477092,-1.301835,-6.631201,-12.195160
1452000,-1.594538,0.890643,7.445967,-4.767485,-7.959445,-10.760045
1456000,-1.972822,0.804452,7.503428,-8.217866,-11.883110,-9.065389
1460000,-2.161964,0.617704,7.864953,-11.744583,-15.867843,-7.172258
1464000,-2.197877,0.509965,8.259995,-14.340003,-18.463263,-4.469968
1468000,-2.236184,0.301669,8.530540,-15.775117,-20.249523,-1.798213
1472000,-2.267309,0.490811,8.492233,-18.355270,-23.791508,-0.500503
1476000,-1.453280,0.277727,9.244013,-16.477407,-21.272423,2.843009
1480000,-1.477222,0.162806,9.023746,-16.278934,-20.157919,4.614001
1484000,-1.458069,0.387861,9.485827,-14.889621,-17.593035,4.858276
1488000,-1.314417,0.385466,9.380483,-14.660613,-16.081583,5.896444
1492000,-1.091756,0.390255,9.746795,-12.782752,-15.211354,5.957513
1496000,-0.842759,0.387861,9.914390,-10.584278,-13.608301,5.255223
1500000,-0.672771,0.442927,9.902418,-7.836186,-10.218988,4.507131
1504000,-0.665588,0.433351,9.742006,-6.309469,-7.257155,3.224688
1508000,-0.861913,0.605733,9.746795,-4.309469,-5.654102,2.858276
1512000,-0.761356,0.572214,9.581595,-3.194965,-4.020514,1.865910
1516000,-0.981623,0.605733,9.514558,-1.866720,-3.654102,1.407894
1520000,-1.084573,0.536301,9.255983,0.072211,-5.791507,1.072016
1524000,-0.881066,0.572214,9.059659,1.629462,-6.570133,0.644536
1528000,-0.945710,0.560243,8.722076,1.354653,-5.272423,0.552933
1532000,-0.964863,0.562637,8.365341,0.621829,-4.005247,0.614001
1536000,-0.995988,0.615310,8.214506,-0.523209,-3.974713,1.209421
1540000,-1.130063,0.656011,8.042124,-2.309469,-4.341125,1.728505
1544000,-1.228225,0.694318,8.202535,-4.004126,-4.982347,2.537665
1548000,-1.031901,0.667982,8.336611,-5.714049,-6.081583,3.606368
1552000,-0.897826,0.667982,8.446744,-6.446874,-5.608301,4.415528
1556000,-0.756568,0.737414,8.463503,-7.729317,-4.600667,4.919345
1560000,-0.706290,0.828394,8.485051,-8.584278,-2.417461,5.453696
1564000,-0.816423,0.847547,8.599973,-9.698782,-1.135018,6.140719
1568000,-0.718261,0.952892,8.803479,-9.927790,0.544371,6.659803
1572000,-0.735020,0.986411,8.990228,-9.943057,1.933684,7.117818
1576000,-0.641646,1.065420,9.136273,-9.271301,3.384066,7.575834
1580000,-0.509965,1.039083,9.062054,-8.156797,4.437501,7.133085
1584000,-0.407014,1.072602,8.966286,-6.584278,5.735211,6.461329
1588000,-0.361524,1.082179,8.875306,-5.240767,5.475669,5.713238
1592000,-0.318429,1.079785,8.667010,-4.080462,5.032921,4.323925
1596000,-0.342371,1.089362,8.664616,-3.362904,4.223761,2.919345
1600000,-0.603339,1.000776,8.688558,-2.599545,1.582539,1.881177
1604000,-0.689530,0.952892,8.729259,-1.179698,-1.898377,0.949879
1608000,-0.550666,0.902614,8.865729,-0.355270,-4.738071,0.293391
1612000,-0.524330,0.821211,8.870518,1.079844,-6.142652,-0.302029
1616000,-0.521936,0.737414,8.810662,2.255417,-6.203721,-0.836380
1620000,-0.653617,0.696713,8.597578,2.301218,-5.944179,-1.156991
1624000,-0.847547,0.636858,8.374918,1.232516,-6.249522,-1.187526
1628000,-1.101333,0.687136,8.441956,-1.057560,-7.089217,-0.439434
1632000,-1.077391,0.553061,8.698134,-3.133896,-6.554865,0.888810
1636000,-1.204283,0.483629,8.892065,-3.286568,-4.005247,3.056749
1640000,-1.230620,0.347159,8.930372,-2.569010,-1.409827,5.102551
1644000,-1.158794,0.476446,8.925584,-2.446873,0.758111,6.995681
1648000,-1.170765,0.526724,8.805874,-2.843820,3.796279,9.209421
1652000,-1.170765,0.536301,8.841787,-2.721682,6.926051,11.270490
1656000,-0.895431,0.627281,8.635885,-3.210232,10.239027,13.117818
1660000,-0.703895,0.725443,8.456321,-4.004126,12.391699,13.835375
1664000,-0.474052,0.914585,8.386889,-4.782751,13.994752,13.636902
1668000,-0.256180,0.893037,8.580819,-4.935423,15.567271,12.720871
1672000,-0.229843,1.058237,8.537724,-4.904889,16.819180,12.049115
1676000,-0.263362,1.010353,8.401254,-4.904889,17.399332,10.522398
1680000,-0.289698,1.058237,8.303091,-4.553743,16.254293,8.995680
1684000,-0.241814,1.041478,8.176199,-4.782751,15.292462,7.530032
1688000,-0.428562,1.103727,8.305486,-4.691149,13.460402,6.644536
1692000,-0.272939,1.082179,8.216900,-4.065194,10.559638,4.629269
1696000,-0.232238,1.082179,8.298303,-3.744583,8.483302,2.629268
1700000,-0.495600,1.089362,8.312668,-3.408705,5.674142,1.194154
1704000,-0.632069,1.060631,8.343793,-2.920156,2.193226,0.140719
1708000,-0.667982,1.010353,8.542512,-2.401072,0.574905,-0.286762
1712000,-0.574608,1.005565,8.508993,-2.019392,0.880249,-0.317297
1716000,-0.517148,1.022324,8.647857,-2.065194,1.994753,-0.302029
1720000,-0.361524,0.940921,8.695741,-1.943056,4.971852,-0.195159
1724000,-0.335188,0.897826,8.638280,-1.515576,7.796279,-0.225693
1728000,-0.562637,0.936133,8.556877,-1.485041,9.506203,-0.286762
1732000,-0.744597,0.914585,8.585608,-1.744583,10.284829,0.140719
1736000,-0.905008,0.938527,8.451532,-2.141530,9.735210,0.827742
1740000,-0.878672,0.756568,8.456321,-2.324736,9.796279,1.362093
1744000,-0.725443,0.699107,8.422802,-2.752217,10.544371,2.354459
1748000,-0.684742,0.742203,8.377312,-3.362904,11.521470,2.797207
1752000,-0.598550,0.775721,8.243237,-4.324736,11.582539,2.675070
1756000,-0.474052,0.773327,8.370130,-4.721683,11.887882,2.339192
1760000,-0.509965,0.665588,8.305486,-4.920156,12.086355,1.820108
1764000,-0.663194,0.737414,8.298303,-5.408706,10.498569,1.591100
1768000,-0.703895,0.732626,8.240842,-6.202599,8.605439,1.224688
1772000,-0.553061,0.588974,8.257602,-7.256034,7.429867,0.934612
1776000,-0.634463,0.555455,8.350976,-8.294202,6.300097,-0.011953
1780000,-0.723049,0.562637,8.379706,-9.088095,4.926051,0.079650
1784000,-0.878672,0.481235,8.576031,-8.553743,3.032921,0.110184
1788000,-1.019930,0.447716,8.899248,-8.187331,0.315363,-0.027220
1792000,-0.907402,0.562637,8.896853,-8.110995,-0.814408,0.278123
1796000,-0.773327,0.586579,9.002198,-8.141530,-0.799140,0.720871
1800000,-0.871489,0.550666,9.052477,-7.820919,-1.135018,0.873543
1804000,-0.737414,0.497994,9.033323,-6.904889,-0.661736,1.072016
1808000,-0.593762,0.591368,8.908825,-6.599545,0.590173,1.392627
1812000,-0.529119,0.600945,8.860941,-6.324736,1.628341,1.026215
1816000,-0.665588,0.610521,8.777143,-6.278934,1.842081,0.705604
1820000,-0.739808,0.567426,8.817844,-6.309469,1.628341,0.629268
1824000,-0.746991,0.600945,8.820239,-5.469774,1.979486,0.919345
1828000,-0.720655,0.622492,8.777143,-5.057561,2.239028,0.888810
1832000,-0.785298,0.634463,8.772355,-5.607179,1.078722,0.415528
1836000,-0.744597,0.677559,8.753201,-5.866721,0.452768,0.384994
1840000,-0.622492,0.538695,8.781932,-6.034659,0.406966,0.262856
1844000,-0.634463,0.569820,8.748413,-6.309469,0.315363,-0.195159
1848000,-0.694318,0.593762,8.614338,-7.149163,-0.432728,-0.561571
1852000,-0.689530,0.550666,8.882488,-7.393438,-1.272423,-0.821113
1856000,-0.713472,0.562637,9.014170,-6.248401,-0.677003,-0.943251
1860000,-0.758962,0.624887,8.961497,-4.431606,-0.432728,-1.233327
1864000,-0.560243,0.699107,8.906430,-3.179698,-0.173186,-1.859281
1868000,-0.569820,0.835576,8.882488,-2.767484,0.513837,-2.454701
1872000,-0.519542,0.876278,8.750807,-2.538476,1.628341,-2.805846
1876000,-0.466869,0.770933,8.547300,-2.019392,3.735211,-3.218060
1880000,-0.373495,0.737414,8.346188,-1.591912,5.582539,-3.828747
1884000,-0.418985,0.780510,8.116343,-2.202598,5.628341,-5.202793
1888000,-0.577003,0.778116,8.003817,-3.378171,4.712310,-6.378365
1892000,-0.811634,0.684742,8.176199,-4.110995,3.216127,-7.019587
1896000,-0.995988,0.608127,8.267179,-4.309469,1.231394,-7.340197
1900000,-1.237802,0.603339,8.255207,-4.569011,-1.913644,-7.172258
1904000,-1.283292,0.476446,8.489840,-5.393438,-4.738071,-6.805846
1908000,-1.407791,0.253785,8.619126,-5.088095,-6.493797,-5.889815
1912000,-1.364695,0.294487,8.971074,-3.943056,-9.654102,-5.248594
1916000,-1.211466,0.313640,9.313444,-2.981224,-10.951813,-4.637907
1920000,-1.271321,0.239420,9.524135,-0.904888,-11.180820,-3.737144
1924000,-1.122881,0.244209,9.543288,0.942440,-11.669370,-3.248594
1928000,-0.969652,0.220267,9.648633,2.026409,-10.722805,-3.156991
1932000,-1.048660,0.258574,9.528923,3.537859,-8.585401,-2.057755
1936000,-1.051055,0.349553,9.318233,4.698165,-5.791507,-0.698976
1940000,-1.139640,0.299275,9.124303,5.537859,-3.455629,0.507131
1944000,-0.969652,0.440533,9.057265,5.980608,-0.768606,1.957513
1948000,-0.914585,0.445322,8.817844,6.072211,1.872615,2.720871
1952000,-0.701501,0.481235,8.592790,5.904272,4.391699,3.560566
1956000,-0.605733,0.543484,8.348581,5.797401,6.177959,3.392627
1960000,-0.536301,0.593762,8.032547,5.919539,6.223761,2.293390
1964000,-0.596156,0.665588,7.924808,4.728699,4.284829,1.194154
1968000,-0.732626,0.706290,7.886500,2.972974,1.628341,0.125452
1972000,-0.735020,0.735020,7.982268,1.446256,-1.196087,-1.080655
1976000,-0.646434,0.701501,8.006210,0.255417,-3.944179,-1.340197
1980000,-0.701501,0.758962,8.078036,-0.935423,-5.867843,-2.027220
1984000,-0.667982,0.782904,8.147469,-2.233133,-6.677003,-2.332564
1988000,-0.718261,0.816423,8.212111,-3.790385,-6.707537,-2.500503
1992000,-0.763750,0.785298,8.195353,-4.904889,-5.562499,-2.393632
1996000,-0.806846,0.828394,8.319851,-5.408706,-3.944179,-2.134090
