time_us,ax,ay,az,gx,gy,gz
0,0.148441,-0.928950,8.968679,-2.920156,2.193226,1.209421
4000,0.177171,-0.926556,8.932767,-3.179698,3.445134,1.942245
8000,0.193930,-0.912191,8.923190,-3.027026,4.498569,2.461329
12000,0.241814,-0.828394,8.791509,-2.996492,5.597806,3.163620
16000,0.311246,-0.861913,8.935161,-2.889621,5.704677,3.667437
20000,0.373495,-0.857124,9.062054,-2.233133,6.010020,4.186521
24000,0.423774,-0.830788,9.014170,-1.744583,6.254295,3.972780
28000,0.433351,-0.799663,8.990228,-1.378171,6.101623,3.804841
32000,0.507571,-0.785298,8.966286,-0.843820,5.613073,3.759039
36000,0.629675,-0.768539,8.808268,-0.110996,4.910783,3.560566
40000,0.536301,-0.756568,8.791509,0.087478,4.269562,3.087284
44000,0.708684,-0.787692,8.695741,-0.065194,3.750478,2.720871
48000,0.746991,-0.742203,8.671799,-0.034660,3.216127,2.232322
52000,0.837971,-0.773327,8.616732,-0.431606,3.017654,1.530032
56000,0.797269,-0.749385,8.489840,-0.523209,3.063455,0.552933
60000,0.684742,-0.837971,8.578424,-0.828552,2.055821,-0.668442
64000,0.672771,-0.909797,8.628703,-0.813286,0.910783,-1.645541
68000,0.500388,-0.967257,8.609550,-0.767484,-0.906011,-2.561571
72000,0.397437,-1.079785,8.597578,-0.248400,-2.295324,-2.637907
76000,0.272939,-1.070208,8.549694,-0.172064,-2.967079,-2.805846
80000,0.220267,-1.096544,8.604761,-0.202598,-3.089217,-2.424167
84000,0.328006,-1.175553,8.628703,-0.599545,-2.417461,-2.332564
88000,0.287304,-1.106121,8.595184,-0.767484,-1.852576,-2.271495
92000,0.318429,-1.115698,8.611943,-0.859087,-1.058682,-1.935617
96000,0.335188,-1.156399,8.688558,-0.965957,-0.585400,-1.813480
100000,0.299275,-1.079785,8.595184,-1.454507,-0.280056,-1.553938
104000,0.335188,-1.029507,8.580819,-2.416339,-0.295324,-1.095922
108000,0.277727,-1.077391,8.753201,-3.011759,-0.432728,-0.943251
112000,0.213084,-1.139640,8.877700,-3.362904,0.452768,-0.485235
116000,0.162806,-1.221043,8.925584,-2.614812,0.849715,0.461329
120000,0.253785,-1.146823,8.978256,-2.049927,0.926050,0.827742
124000,0.189142,-1.177947,8.882488,-1.820919,1.277195,1.285757
128000,0.304064,-1.134852,9.033323,-1.118629,2.223760,1.697971
132000,0.354342,-1.086968,8.841787,-0.752217,2.758112,1.621635
136000,0.361524,-0.976834,8.750807,-0.340003,3.109257,1.759039
140000,0.375890,-0.969652,8.784326,-0.110996,3.261928,1.468963
144000,0.529119,-0.905008,8.626308,0.514959,3.918417,1.407894
148000,0.560243,-0.914585,8.561666,0.957707,3.643608,0.949879
152000,0.407014,-0.964863,8.482656,0.850837,3.429867,0.690337
156000,0.392649,-0.945710,8.386889,0.530226,2.101623,0.171253
160000,0.292093,-0.921768,8.449138,0.133279,1.109257,-0.179892
164000,0.198719,-0.888249,8.343793,-0.553744,-0.142652,-0.057755
168000,0.153229,-0.885855,8.554482,-0.981224,-0.677003,0.384994
172000,0.162806,-0.885855,8.525752,-0.859087,-0.799140,0.507131
176000,0.311246,-0.830788,8.576031,-1.149163,-0.890743,0.919345
180000,0.368707,-0.828394,8.568848,-1.607178,-1.089217,0.751406
184000,0.493206,-0.830788,8.566454,-1.530843,-1.211354,0.323925
188000,0.565032,-0.773327,8.518570,-1.149163,-1.180820,-0.103556
192000,0.462081,-0.758962,8.556877,-1.423972,-0.631201,-0.805846
196000,0.505177,-0.823605,8.523358,-1.347636,0.055821,-0.912716
200000,0.426168,-0.861913,8.585608,-1.011759,1.994753,-1.126457
204000,0.323217,-0.909797,8.554482,-1.240766,2.880249,-0.927984
208000,0.320823,-0.914585,8.532935,-1.362904,3.017654,-0.927984
212000,0.258574,-0.998382,8.511387,-1.408705,2.941318,-1.324930
216000,0.167594,-0.957681,8.508993,-1.897255,1.872615,-1.584472
220000,0.043096,-0.998382,8.473080,-2.370538,-0.005247,-1.874548
224000,0.146046,-1.096544,8.578424,-2.309469,-0.631201,-1.508136
228000,-0.102951,-1.094150,8.817844,-3.286568,-1.608301,-1.553938
232000,-0.055067,-1.137246,8.877700,-2.110996,-0.081583,-0.653174
236000,-0.126893,-1.161188,8.789114,-2.446873,0.132157,0.003314
240000,-0.198719,-1.127669,8.803479,-3.271301,-0.325858,0.369726
244000,-0.201113,-1.168370,8.880095,-3.347636,-1.470896,0.827742
248000,-0.248997,-1.182736,9.021352,-3.118629,-2.554866,1.545299
252000,-0.110133,-1.249773,9.184157,-2.645346,-4.631201,1.667436
256000,-0.026336,-1.345541,9.165004,-1.744583,-5.745705,1.957513
260000,0.126893,-1.312023,9.212888,-0.599545,-5.409827,1.926978
264000,0.110133,-1.359907,9.066842,0.301218,-5.089217,1.926978
268000,0.114922,-1.424550,8.923190,0.606562,-4.997613,2.003314
272000,0.052672,-1.424550,8.947132,0.805035,-5.302957,1.865910
276000,0.031125,-1.455675,8.851364,0.972974,-5.791507,1.835375
280000,0.102951,-1.410185,8.851364,1.385188,-6.432728,2.064383
284000,0.191536,-1.364695,8.822633,1.751600,-6.570133,2.094917
288000,0.215478,-1.436521,8.906430,2.301218,-6.096850,2.217055
292000,0.328006,-1.407791,8.817844,2.347020,-5.241889,2.430795
296000,0.375890,-1.438915,8.667010,1.843203,-4.325858,2.552932
300000,0.428562,-1.498770,8.719683,1.522592,-2.906011,2.980413
304000,0.526724,-1.484405,8.734048,1.003508,-0.585400,2.919345
308000,0.550666,-1.419762,8.676587,0.652363,1.322997,2.812474
312000,0.608127,-1.414973,8.669404,0.347020,2.376432,3.010948
316000,0.581791,-1.479617,8.635885,0.133279,3.933684,3.010948
320000,0.478840,-1.515530,8.678981,0.423356,4.529104,2.751406
324000,0.462081,-1.503559,8.554482,0.362287,4.620707,2.690337
328000,0.407014,-1.482011,8.604761,-0.446873,3.994753,2.659803
332000,0.464475,-1.625663,8.506598,-0.599545,1.307730,2.843009
336000,0.371101,-1.570596,8.789114,-2.187331,-0.646469,1.896444
340000,0.457293,-1.539472,8.750807,-0.507942,0.681776,2.217055
344000,0.407014,-1.486799,8.779537,-0.172064,0.406966,2.201787
348000,0.349553,-1.527501,8.939949,-0.355270,-0.585400,2.125452
352000,0.392649,-1.534683,8.796297,-0.706415,-1.654102,1.957513
356000,0.634463,-1.532289,8.846576,-0.370538,-0.554866,2.003314
360000,0.653617,-1.570596,8.734048,-0.889621,0.391699,1.484230
364000,0.699107,-1.561020,8.760384,-1.378171,0.803913,1.163620
368000,0.586579,-1.659182,8.702923,-1.927789,1.322997,0.369726
372000,0.706290,-1.762132,8.765172,-2.507942,2.742844,0.446062
376000,0.756568,-1.778892,8.793902,-2.889621,2.819180,-0.332564
380000,0.706290,-1.944092,9.030929,-2.965957,6.177959,-0.317297
384000,0.469264,-2.015918,9.050082,-3.149163,5.689409,-1.156991
388000,0.280122,-2.176329,9.093178,-3.820919,4.147425,-1.370732
392000,0.270545,-2.276886,9.289502,-4.248401,3.307730,-1.721877
396000,0.124498,-2.454057,9.524135,-4.049927,3.842081,-1.080655
400000,-0.016759,-2.638410,9.832987,-2.599545,4.254295,-0.240961
404000,-0.038307,-2.822764,9.940725,-1.103362,3.368799,0.583467
408000,-0.045490,-2.841918,9.809045,0.347020,2.300096,1.148352
412000,-0.002394,-2.925714,9.904813,1.049310,1.460402,1.697971
416000,0.086191,-2.844312,9.854534,1.644730,1.048188,1.972780
420000,0.167594,-2.870648,9.967062,2.316485,1.292463,2.430795
424000,0.150835,-2.880225,9.842564,3.110379,1.719944,2.781940
428000,0.181959,-2.846706,9.861717,3.507325,2.269562,3.194154
432000,0.217872,-2.784456,9.631873,3.904272,3.536737,3.759039
436000,0.213084,-2.786851,9.765948,4.102745,5.628341,4.736139
440000,0.344765,-2.650381,9.368511,4.240149,8.269562,5.453696
444000,0.385466,-2.475605,9.090784,4.545493,10.086355,6.003314
448000,0.397437,-2.420538,8.942344,4.484425,9.322997,5.789574
452000,0.347159,-2.425326,8.755595,3.782134,7.521471,5.316291
456000,0.301669,-2.375048,8.530540,2.866104,6.086356,5.102551
460000,0.100556,-2.358289,8.192958,1.736333,-0.478530,4.507131
464000,0.217872,-2.341529,8.475474,0.530226,-2.890743,3.988047
468000,0.548272,-2.432509,8.384495,1.629462,-2.264789,4.736139
472000,0.550666,-2.379837,8.255207,0.927172,-1.348759,4.614001
476000,0.517148,-2.387019,8.439561,0.453890,-3.944179,3.423162
480000,0.742203,-2.389413,8.394072,0.026409,-7.409827,2.094917
484000,0.919373,-2.432509,8.465898,0.072211,-4.906011,1.972780
488000,0.802058,-2.454057,8.341399,-0.523209,-4.509064,0.751406
492000,0.651223,-2.470816,8.248025,-2.324736,-5.272423,0.201787
496000,0.648829,-2.418144,8.197746,-3.943056,-7.440361,-0.546304
500000,0.799663,-2.454057,8.190564,-5.210233,-4.600667,-0.088289
504000,0.936133,-2.396596,7.867347,-9.439240,-7.638835,-0.531037
508000,1.067814,-2.367866,8.190564,-8.721683,-1.165553,-0.149358
512000,0.931344,-2.317587,8.118738,-10.401072,2.406966,0.384994
516000,0.852336,-2.138022,8.049306,-11.912522,4.697043,0.995681
520000,0.909797,-1.939303,8.202535,-14.095729,4.712310,0.568200
524000,0.995988,-1.958457,8.480263,-14.782752,6.605440,0.797207
528000,0.936133,-1.984793,8.339005,-14.034659,6.437501,-0.424167
532000,1.142034,-1.977611,8.350976,-12.981225,12.697042,0.614001
536000,0.835576,-1.862689,8.118738,-12.889621,12.559638,-0.286762
540000,0.653617,-1.896208,8.185776,-14.263667,9.750478,-1.233327
544000,0.486023,-1.965640,8.508993,-14.355271,7.552005,-1.798213
548000,0.426168,-2.013524,8.520964,-14.065194,5.582539,-1.966151
552000,0.356736,-2.166753,8.482656,-13.439240,3.109257,-2.134090
556000,0.459687,-2.310405,8.485051,-12.828553,0.406966,-2.454701
560000,0.478840,-2.315193,8.465898,-11.927790,-0.570133,-3.263861
564000,0.610521,-2.446874,8.549694,-11.271301,-2.402194,-4.057755
568000,0.608127,-2.568978,8.537724,-10.599545,-3.669369,-4.775311
572000,0.596156,-2.638410,8.635885,-10.278934,-5.272423,-5.477602
576000,0.634463,-2.667141,8.607155,-10.385805,-6.417461,-5.737144
580000,0.914585,-2.853889,8.700529,-10.034659,-5.791507,-6.103556
584000,1.019930,-2.853889,8.568848,-9.607179,-4.203721,-6.118823
588000,1.089362,-3.004723,8.552089,-9.240767,-2.570133,-6.195159
592000,1.170765,-2.904167,8.470686,-9.225499,-0.860209,-6.561571
596000,1.139640,-2.616863,8.461109,-9.683515,1.536737,-6.653174
600000,1.142034,-2.183512,8.327033,-11.179698,3.689409,-6.912716
604000,1.252167,-1.814805,8.094796,-13.408706,6.819180,-6.943251
608000,1.015141,-1.556231,7.912837,-15.133897,8.864982,-6.927983
612000,0.847547,-1.436521,7.733272,-16.736948,8.681775,-6.607373
616000,0.833182,-1.522712,7.759608,-17.790384,8.697042,-6.286762
620000,0.919373,-1.577779,7.659051,-18.920155,8.422234,-6.256227
624000,1.094150,-1.714248,7.615956,-20.446873,7.460402,-6.989052
628000,1.201889,-1.508347,7.967903,-23.271299,5.964219,-9.156992
632000,1.429338,-1.522712,8.169016,-22.630079,11.368798,-9.889816
636000,1.048660,-1.403002,8.365341,-22.614811,11.521470,-11.569205
640000,0.931344,-1.529895,8.473080,-22.691147,10.529103,-12.927984
644000,0.735020,-1.620875,8.458714,-21.912521,7.490936,-14.912717
648000,0.579397,-1.776498,8.576031,-20.569010,4.376432,-16.363098
652000,0.311246,-1.917756,8.475474,-19.775116,-0.707537,-17.996685
656000,0.067038,-1.982399,8.607155,-19.790384,-5.501431,-18.973785
660000,-0.299275,-2.138022,8.662222,-19.423971,-9.837309,-19.416533
664000,-0.404620,-2.317587,8.872911,-18.843819,-13.043416,-18.729509
668000,-0.318429,-2.521094,9.090784,-18.416338,-13.364026,-17.416533
672000,-0.390255,-2.719813,9.344569,-18.095728,-12.539598,-15.889816
676000,-0.392649,-2.861071,9.390059,-16.431606,-12.035782,-14.485236
680000,-0.454898,-2.839523,9.605537,-15.256034,-13.394561,-13.050121
684000,-0.414197,-2.918532,9.852140,-13.530843,-12.753339,-10.989053
688000,-0.354342,-2.782062,10.084377,-11.271301,-11.135018,-8.973785
692000,-0.153229,-2.561796,10.043676,-9.317102,-7.577766,-6.836380
696000,0.119710,-2.310405,9.911995,-7.515575,-3.440362,-5.538671
700000,0.689530,-2.195483,9.672575,-5.729317,1.429867,-5.416533
704000,1.347936,-1.958457,9.734824,-4.187331,9.552004,-6.958518
708000,1.680730,-2.037466,9.686940,-2.355270,16.727577,-10.179893
712000,1.659182,-2.013524,9.550470,0.835569,22.223761,-14.011953
716000,1.266533,-1.987187,9.279925,2.927173,24.071089,-18.424166
720000,0.847547,-1.927332,9.100361,4.545493,22.788645,-22.363098
724000,0.387861,-1.956063,8.872911,6.896638,19.689409,-26.286762
728000,0.100556,-2.008735,8.750807,8.850837,16.468035,-29.477602
732000,-0.593762,-2.042254,8.619126,10.285952,12.177958,-31.447067
736000,-1.034295,-2.255338,8.717288,11.812669,6.483303,-32.485237
740000,-1.417367,-2.379837,8.626308,13.873737,-0.570133,-32.714241
744000,-1.508347,-2.595315,8.604761,16.224882,-5.425095,-32.073021
748000,-1.723825,-2.753332,8.456321,17.446257,-8.967080,-31.156990
752000,-1.884237,-2.952051,8.556877,17.629463,-13.211354,-29.981419
756000,-1.838747,-3.100491,8.791509,18.423355,-14.707538,-28.622639
760000,-1.783680,-3.210624,9.045294,19.308851,-13.669370,-26.576838
764000,-2.133234,-3.196259,9.121908,18.591295,-13.516698,-24.164623
768000,-2.308010,-2.971204,9.385271,17.476791,-14.875477,-21.660807
772000,-2.236184,-2.729390,9.639056,16.438623,-12.982347,-18.149357
776000,-2.545036,-2.636016,9.801862,15.889005,-9.333492,-13.385999
780000,-2.688689,-2.499547,10.005369,16.576027,-5.241889,-7.141724
784000,-2.703054,-2.133234,9.938332,17.308851,-0.982347,-0.210426
788000,-2.229002,-1.754950,9.835381,17.446257,4.468035,6.781940
792000,-1.575385,-1.304840,9.854534,15.995874,14.269562,13.407894
796000,-0.957681,-0.974440,9.679757,14.041677,24.758112,18.873545
800000,-0.366313,-0.584185,9.493010,11.965341,34.300095,22.781940
804000,0.342371,-0.342371,9.239224,10.789768,44.849712,25.942245
808000,1.185130,-0.263362,8.872911,9.873737,54.666508,26.400261
812000,1.663970,-0.090980,8.420407,8.820302,60.620705,24.293390
816000,1.836353,0.162806,8.358158,7.232516,59.368797,19.881178
820000,1.941698,0.201113,8.219295,8.240149,56.773376,15.316291
824000,1.848324,0.320823,8.171411,8.942440,51.719944,10.583467
828000,1.659182,0.296881,8.243237,9.766868,43.628342,6.033849
832000,0.878672,0.476446,8.080431,10.148546,27.872616,0.155986
836000,1.577779,0.486023,8.662222,15.537859,23.368797,-2.653174
840000,1.115698,0.490811,8.298303,16.896639,13.918416,-5.416533
844000,0.936133,0.600945,8.432379,20.591295,9.277195,-7.767678
848000,0.792481,0.567426,8.446744,22.224884,2.483302,-10.347831
852000,0.708684,0.500388,8.176199,23.308853,-4.234255,-12.515770
856000,0.452504,0.682347,7.977480,23.400455,-11.486164,-14.927984
860000,0.280122,0.758962,7.951144,22.835569,-15.516698,-16.408899
864000,0.098162,0.840365,8.109161,21.858471,-17.715172,-16.912716
868000,-0.320823,0.749385,8.022970,20.866104,-20.417461,-16.897449
872000,-0.418985,0.560243,8.066066,21.079845,-19.638836,-15.676076
876000,-0.596156,0.507571,8.058883,20.835569,-17.058683,-13.920350
880000,-0.835576,0.770933,8.030152,19.018776,-15.180820,-12.134090
884000,-0.883460,0.703895,8.214506,17.446257,-11.180820,-9.874549
888000,-0.849942,0.586579,8.267179,17.003510,-4.707537,-7.187525
892000,-1.074997,0.620098,8.111555,15.782134,0.758111,-4.760045
896000,-1.371878,0.828394,8.178593,13.629462,4.162692,-2.042487
900000,-1.644817,0.943315,8.271967,11.889005,7.368799,0.858276
904000,-2.193089,0.928950,8.341399,10.499692,9.078722,4.094917
908000,-2.511518,0.984017,8.207323,8.453890,9.032920,8.827742
912000,-2.566584,1.003170,8.257602,6.301218,8.574905,13.392627
916000,-2.461239,0.948104,8.437167,4.667631,7.872615,18.384995
920000,-2.030283,0.993594,8.638280,4.469157,8.391699,22.736139
924000,-1.697489,1.079785,8.657434,4.255417,9.903150,26.125452
928000,-1.599327,1.201889,8.532935,3.140913,10.666508,28.919346
932000,-1.280898,1.429338,8.592790,1.217249,10.605439,31.255222
936000,-0.883460,1.695095,8.439561,-0.798018,12.177958,32.659801
940000,-0.481235,1.805228,8.576031,-2.431606,12.040554,33.331558
944000,0.028730,1.896208,8.669404,-2.889621,11.460402,32.995682
948000,0.359130,1.922544,8.607155,-3.118629,11.139791,32.003315
952000,0.495600,1.944092,8.566454,-2.233133,10.544371,30.644537
956000,0.543484,2.025495,8.607155,-1.912522,8.513836,28.888811
960000,0.634463,2.159570,8.535329,-1.958324,6.193226,26.690338
964000,0.667982,2.104503,8.556877,-2.172064,4.803913,25.010948
968000,0.560243,2.126051,8.609550,-1.133896,2.345898,24.110186
972000,0.454898,2.178724,8.698134,0.102745,-0.509064,23.759041
976000,0.665588,2.305616,8.705317,0.606562,-2.524331,23.560566
980000,0.957681,2.410961,8.724471,1.598928,-1.379293,23.239956
984000,1.470040,2.542642,8.789114,1.400455,1.002386,21.972780
988000,1.819593,2.729390,8.767567,0.621829,3.185592,19.926979
992000,1.963245,2.770091,8.657434,-0.202598,6.345898,17.591101
996000,2.035071,2.801216,8.774749,-0.874354,7.216127,14.705604
1000000,1.975216,2.703054,8.657434,-1.454507,6.361165,11.575833
1004000,1.975216,2.604892,8.767567,-1.072828,5.322997,8.507131
1008000,1.774103,2.499547,8.832211,0.163814,4.483303,5.362093
1012000,1.470040,2.355895,8.906430,1.614195,1.918417,3.026215
1016000,1.039083,2.257732,9.002198,2.347020,-1.150285,0.949879
1020000,0.972046,2.121263,9.078813,3.140913,-2.447995,-0.271495
1024000,0.699107,1.877054,9.176975,4.545493,-3.135018,-0.790579
1028000,0.605733,1.719037,9.136273,6.331753,-3.257156,-1.752411
1032000,0.390255,1.752556,8.846576,7.400455,-2.753339,-2.424167
1036000,-0.067038,1.683124,8.554482,7.659997,-3.028148,-1.767678
1040000,-0.076614,1.458069,8.537724,8.896638,-3.425095,-1.004319
1044000,-0.493206,1.352724,7.888895,7.614195,-17.684637,-2.805846
1048000,-0.349553,1.611298,8.535329,5.476791,-14.188454,-2.378365
1052000,-0.047884,1.383849,8.473080,10.438622,-8.997614,-0.210426
1056000,-0.076614,1.331176,8.269572,10.820302,-5.043415,0.873543
1060000,-0.074220,1.268927,8.109161,10.362287,-2.341125,1.499497
1064000,0.177171,1.103727,8.087613,10.560760,3.490936,1.606368
1068000,0.361524,0.883460,7.637504,10.438622,9.628340,1.957513
1072000,0.256180,0.938527,7.383718,8.240149,13.735210,1.438429
1076000,0.335188,0.912191,7.213730,5.064577,15.948952,0.018581
1080000,0.421380,0.761356,7.326257,2.942440,19.032921,-0.546304
1084000,-0.040701,0.682347,7.120356,1.232516,16.727577,-2.378365
1088000,-0.148441,0.615310,7.448361,-0.569010,15.414599,-4.103556
1092000,-0.208296,0.600945,7.517793,-2.981224,13.781012,-5.538671
1096000,-0.399832,0.342371,7.762002,-4.660614,12.987119,-6.225693
1100000,-0.574608,0.191536,7.948750,-5.393438,11.689409,-6.973785
1104000,-0.706290,0.158017,8.236053,-5.637713,10.055821,-7.309663
1108000,-0.893037,-0.004788,8.453926,-5.408706,7.750478,-7.798213
1112000,-0.885855,-0.138864,8.532935,-4.309469,7.735211,-7.279129
1116000,-1.031901,-0.107739,8.530540,-4.492675,7.628340,-6.866915
1120000,-1.256956,-0.205901,8.487445,-3.943056,7.536737,-5.996686
1124000,-1.470040,-0.241814,8.552089,-2.889621,5.353531,-5.004319
1128000,-1.381454,-0.241814,8.789114,-2.187331,3.200860,-3.996686
1132000,-1.235408,-0.368707,8.798691,-1.011759,2.987119,-2.714243
1136000,-1.304840,-0.416591,8.434772,-0.233133,4.177959,-0.866915
1140000,-1.328782,-0.490811,8.271967,-0.874354,3.521470,0.522398
1144000,-1.292869,-0.495600,8.324639,-1.958324,2.147424,1.697971
1148000,-1.225831,-0.622492,8.382100,-2.599545,1.093989,2.919345
1152000,-1.144428,-0.785298,8.497022,-3.393438,-0.249522,3.881177
1156000,-0.644040,-0.890643,8.358158,-3.347636,-0.402194,4.705605
1160000,-0.938527,-0.804452,8.336611,-7.133897,-3.333492,4.323925
1164000,-0.560243,-0.809240,8.664616,-5.958323,2.284829,6.018581
1168000,-0.644040,-0.864307,8.473080,-7.179698,2.193226,6.904078
1172000,-0.543484,-0.852336,8.671799,-8.156797,0.254295,6.812475
1176000,-0.457293,-0.955287,8.738836,-8.095729,-3.364026,6.430795
1180000,-0.198719,-0.957681,8.791509,-8.065194,-4.829675,6.140719
1184000,-0.047884,-0.883460,8.939949,-8.065194,-5.608301,5.255223
1188000,-0.016759,-0.873884,9.145850,-7.973591,-5.516697,4.369727
1192000,-0.002394,-0.785298,9.318233,-7.103362,-5.226621,3.881177
1196000,-0.057461,-0.667982,9.330204,-5.546110,-5.196087,3.759039
1200000,-0.004788,-0.687136,9.311050,-3.607178,-5.852575,3.926979
1204000,-0.021548,-0.699107,9.083601,-2.217866,-6.280056,3.667437
1208000,0.148441,-0.691924,8.932767,-1.759850,-5.822041,3.606368
1212000,0.320823,-0.579397,8.848969,-1.958324,-4.753339,3.652169
1216000,0.385466,-0.488417,8.777143,-2.385804,-5.119751,2.736139
1220000,0.514753,-0.347159,8.568848,-2.538476,-4.799140,2.308658
1224000,0.359130,-0.244209,8.714894,-2.233133,-4.860209,1.789574
1228000,0.390255,-0.196325,8.650250,-2.263667,-5.562499,1.881177
1232000,0.409408,-0.167594,8.647857,-2.660614,-5.684637,1.697971
1236000,0.486023,-0.351948,8.427590,-2.141530,-4.982347,1.820108
1240000,0.720655,-0.603339,8.046912,-1.744583,-3.913644,1.804841
1244000,0.775721,-0.756568,7.903260,-2.507942,-4.936545,0.644536
1248000,0.696713,-0.811634,7.716512,-4.660614,-6.051049,-1.355464
1252000,0.452504,-0.883460,7.819463,-7.194965,-8.493797,-3.370732
1256000,0.239420,-0.967257,7.958326,-8.828553,-11.531965,-4.714243
1260000,-0.093374,-0.991199,8.310274,-9.133897,-14.753339,-5.538671
1264000,-0.201113,-1.122881,8.420407,-9.347637,-18.356392,-5.691342
1268000,-0.385466,-1.120486,8.786720,-9.088095,-21.409828,-5.752411
1272000,-0.239420,-1.221043,8.995016,-8.813286,-21.867844,-5.233327
1276000,-0.189142,-1.300052,9.160215,-8.706415,-19.043415,-4.439434
1280000,-0.050278,-1.400608,9.382876,-8.416339,-16.295324,-3.950884
1284000,-0.114922,-1.374272,9.399636,-8.141530,-13.974713,-3.615006
1288000,-0.201113,-1.419762,9.435549,-8.187331,-11.944179,-3.187526
1292000,-0.308852,-1.450886,9.526528,-7.500309,-11.394561,-2.592106
1296000,-0.368707,-1.544260,9.591172,-5.652981,-11.012881,-1.798213
1300000,-0.373495,-1.441309,9.540894,-4.217866,-11.593034,-1.202793
1304000,-0.124498,-1.450886,9.533711,-3.332370,-7.440361,-0.302029
1308000,-0.208296,-1.443704,9.425972,-3.301835,-6.203721,0.155986
1312000,-0.095768,-1.398214,9.339781,-2.721682,-3.684637,0.446062
1316000,0.026336,-1.407791,9.289502,-2.828552,-0.875476,1.194154
1320000,0.083797,-1.316811,9.232041,-3.164430,1.613073,1.377360
1324000,0.028730,-1.213860,9.198523,-2.553744,3.032921,1.362093
1328000,-0.047884,-1.084573,9.258378,-1.897255,3.994753,1.652169
1332000,-0.244209,-0.993594,9.093178,-0.904888,3.842081,1.728505
1336000,-0.112527,-0.981623,8.892065,-0.401072,2.529104,1.865910
1340000,-0.033519,-1.000776,8.844181,-0.828552,1.200860,1.652169
1344000,0.045490,-0.816423,8.772355,-1.271301,0.239028,0.995681
1348000,0.114922,-0.826000,8.690952,-1.576644,-0.890743,0.400261
1352000,0.011971,-0.732626,8.626308,-1.362904,-2.356392,0.125452
1356000,0.031125,-0.703895,8.571242,-1.133896,-2.738072,-0.195159
1360000,0.090980,-0.572214,8.559271,-1.103362,-2.493797,-0.424167
1364000,0.047884,-0.617704,8.482656,-1.607178,-1.440362,-0.011953
1368000,0.079009,-0.656011,8.348581,-1.408705,0.010020,0.614001
1372000,0.215478,-0.730232,8.204929,-1.332370,1.689409,0.812474
1376000,0.165200,-0.732626,8.104373,-1.576644,2.620707,0.415528
1380000,0.213084,-0.828394,7.893683,-2.278934,2.971852,0.018581
1384000,0.071826,-0.854730,7.958326,-3.027026,2.025287,-0.531037
1388000,-0.102951,-0.957681,8.068460,-3.454507,-0.020514,-1.065388
1392000,0.047884,-1.053449,8.185776,-3.790385,-1.318224,-1.401266
1396000,-0.177171,-1.022324,8.358158,-4.477407,-2.463263,-1.508136
1400000,-0.268151,-1.225831,8.619126,-4.874354,-2.982346,-0.744777
1404000,-0.277727,-1.280898,8.604761,-5.027026,-2.753339,0.094917
1408000,-0.330400,-1.285686,8.714894,-5.805653,-2.890743,1.270490
1412000,-0.469264,-1.197101,8.875306,-6.813286,-3.333492,2.415528
1416000,-0.399832,-1.074997,9.220071,-6.859087,-2.860209,3.865910
1420000,-0.332794,-1.134852,9.339781,-5.775118,-1.165553,5.621635
1424000,-0.311246,-1.060631,9.296685,-4.767485,1.307730,6.919345
1428000,-0.344765,-0.924162,9.040505,-3.729316,4.742845,8.843008
1432000,-0.282516,-0.804452,8.880095,-4.294202,8.437500,10.736138
1436000,-0.184354,-0.854730,8.772355,-4.721683,11.704676,12.430795
1440000,0.007183,-0.790087,8.686164,-4.965958,14.880248,13.911711
1444000,0.351948,-0.598550,8.468291,-5.683515,17.765745,14.079650
1448000,0.596156,-0.598550,8.458714,-6.248401,19.948952,13.178886
1452000,0.766145,-0.660800,8.480263,-5.988858,20.681776,11.255222
1456000,0.921768,-0.663194,8.671799,-4.538477,20.712309,9.102551
1460000,0.794875,-0.732626,8.647857,-2.675881,19.826813,6.308658
1464000,0.469264,-0.713472,8.655039,-1.500308,17.216125,3.484231
1468000,0.191536,-0.773327,8.678981,-0.782751,11.826814,1.209421
1472000,0.131681,-0.928950,8.726865,0.301218,8.529103,0.186520
1476000,-0.110133,-0.883460,8.690952,0.652363,4.590173,-0.454701
1480000,-0.076614,-0.933739,8.717288,0.011142,2.651241,-1.065388
1484000,-0.045490,-1.024718,8.746018,-0.141530,1.842081,-1.141724
1488000,0.009577,-1.084573,8.717288,-0.981224,1.078722,-1.584472
1492000,0.016759,-1.132457,8.611943,-1.210232,1.872615,-1.218060
1496000,-0.035913,-1.051055,8.540117,-2.065194,2.406966,-1.340197
1500000,-0.251391,-1.074997,8.499416,-2.721682,2.483302,-0.744777
1504000,-0.347159,-1.065420,8.532935,-3.805652,2.254295,-0.347831
1508000,-0.407014,-1.005565,8.631097,-5.072827,3.475669,1.316291
1512000,-0.445322,-0.950498,8.712500,-6.095729,4.040555,2.446062
1516000,-0.332794,-0.936133,8.767567,-6.721683,5.506203,3.988047
1520000,-0.239420,-0.984017,8.722076,-6.675881,7.231394,4.843009
1524000,-0.162806,-0.943315,8.686164,-6.645347,8.330630,6.094917
1528000,-0.021548,-0.948104,8.640674,-6.599545,8.666508,6.217055
1532000,-0.055067,-0.936133,8.726865,-6.385805,8.437500,6.171253
1536000,-0.064643,-0.919373,8.774749,-6.599545,7.460402,6.308658
1540000,-0.064643,-1.031901,8.904037,-6.294202,7.567272,6.247589
1544000,-0.031125,-1.053449,9.021352,-4.981225,7.506203,6.552933
1548000,0.114922,-1.067814,9.078813,-3.332370,5.597806,6.186521
1552000,0.088585,-1.086968,8.997410,-2.340003,3.338264,5.148353
1556000,0.234632,-1.110910,9.093178,-2.156797,2.712310,3.896444
1560000,0.282516,-1.192312,9.193734,-0.965957,1.658875,2.339192
1564000,0.306458,-1.242591,9.095572,1.690531,0.361165,1.041482
1568000,0.251391,-1.182736,8.860941,2.087478,-2.402194,-1.248594
1572000,0.198719,-1.221043,8.894460,3.064577,-4.157919,-3.187526
1576000,0.136469,-1.170765,8.995016,3.568394,-4.524331,-4.760045
1580000,-0.119710,-1.151611,9.124303,3.568394,-4.295324,-5.355464
1584000,-0.366313,-1.194707,9.112331,3.690531,-5.089217,-5.721877
1588000,-0.306458,-1.173159,9.131485,4.056943,-4.341125,-4.973785
1592000,-0.301669,-1.168370,8.865729,4.392821,-2.325858,-4.225693
1596000,-0.284910,-1.142034,8.813056,3.766867,-0.264789,-3.569205
1600000,-0.354342,-1.223437,8.772355,3.263050,1.872615,-2.576838
1604000,-0.418985,-1.158794,8.659827,3.064577,3.139791,-1.691342
1608000,-0.397437,-1.024718,8.406042,2.240149,4.498569,-0.302029
1612000,-0.256180,-1.084573,8.252813,1.034043,4.819180,0.675070
1616000,-0.167594,-1.170765,8.319851,0.087478,5.032921,1.239955
1620000,0.045490,-1.072602,8.233660,-0.798018,5.155058,1.178887
1624000,0.102951,-1.086968,8.262390,-1.698782,4.498569,0.018581
1628000,0.153229,-1.067814,8.415619,-2.584278,2.712310,-0.805846
1632000,-0.028730,-1.101333,8.441956,-2.889621,-0.447995,-1.828747
1636000,0.000000,-1.072602,8.604761,-2.813286,-3.470896,-2.576838
1640000,-0.050278,-1.082179,8.717288,-2.477408,-6.173186,-3.126457
1644000,-0.026336,-1.053449,8.784326,-2.187331,-8.234255,-3.538671
1648000,0.038307,-1.074997,8.856153,-2.538476,-10.035782,-3.706610
1652000,0.088585,-0.969652,9.042900,-2.385804,-9.959446,-3.874548
1656000,0.112527,-0.885855,8.935161,-2.019392,-8.707538,-4.042487
1660000,0.181959,-0.806846,8.892065,-1.546110,-7.837308,-4.286762
1664000,0.299275,-0.826000,8.920795,-0.034660,-5.623568,-4.454701
1668000,0.277727,-0.723049,8.803479,0.530226,-3.577766,-4.927983
1672000,0.371101,-0.749385,8.695741,0.942440,-2.371660,-5.340197
1676000,0.323217,-0.742203,8.650250,1.217249,-1.287690,-6.698976
1680000,0.227449,-0.723049,8.549694,1.278317,-0.157919,-7.279129
1684000,0.239420,-0.723049,8.358158,1.461524,-0.188453,-7.966151
1688000,0.079009,-0.735020,8.271967,0.972974,-1.165553,-8.882182
1692000,0.093374,-0.735020,8.331821,0.438623,-2.799140,-9.889816
1696000,-0.040701,-0.883460,8.281544,0.133279,-4.692270,-10.668442
1700000,-0.167594,-0.991199,8.406042,0.133279,-6.753339,-11.202793
1704000,-0.299275,-1.029507,8.497022,0.118012,-9.226622,-11.462335
1708000,-0.256180,-1.096544,8.568848,-0.782751,-10.585401,-11.538671
1712000,-0.497994,-1.103727,8.638280,-1.530843,-11.791507,-11.233328
1716000,-0.605733,-1.242591,8.810662,-1.988858,-12.844942,-10.179893
1720000,-0.641646,-1.398214,8.899248,-2.340003,-12.570133,-8.989053
1724000,-0.560243,-1.484405,8.901642,-2.263667,-11.791507,-8.073022
1728000,-0.667982,-1.419762,8.923190,-2.645346,-11.073950,-7.111189
1732000,-0.739808,-1.572991,8.959103,-2.370538,-10.799141,-5.950884
1736000,-0.775721,-1.599327,9.203311,-2.019392,-10.066317,-4.744777
1740000,-0.739808,-1.640028,9.311050,-1.317102,-9.165553,-3.615006
1744000,-0.677559,-1.647211,9.311050,-0.965957,-8.738072,-2.607373
1748000,-0.612916,-1.561020,9.370906,-0.599545,-7.531965,-1.431800
1752000,-0.588974,-1.498770,9.428367,0.194348,-5.272423,0.018581
1756000,-0.430956,-1.412579,9.313444,1.095111,-3.776240,0.827742
1760000,-0.349553,-1.297657,9.370906,2.377554,-0.707537,1.575833
1764000,-0.407014,-1.223437,9.102755,3.278317,0.544371,2.155986
1768000,-0.368707,-1.072602,9.090784,3.064577,1.155058,3.010948
1772000,-0.287304,-1.012747,8.975863,3.950073,1.475669,3.575833
1776000,-0.198719,-1.027112,8.918402,4.942440,1.536737,3.438429
1780000,-0.122104,-0.955287,8.707711,5.476791,1.170325,3.407894
1784000,0.028730,-0.885855,8.444349,5.705799,0.834447,2.751406
1788000,0.074220,-0.780510,8.355764,5.583661,0.147424,2.232322
1792000,0.205901,-0.821211,8.159439,5.614195,0.025287,1.239955
1796000,0.138864,-0.775721,8.202535,5.140913,-0.127385,-0.027220
1800000,0.131681,-0.696713,8.147469,4.942440,-1.012881,-1.248594
1804000,0.033519,-0.696713,8.039729,4.514959,-2.539598,-1.966151
1808000,-0.052672,-0.735020,7.994239,3.614195,-3.776240,-2.347831
1812000,-0.019154,-0.821211,8.027759,2.911905,-4.493797,-2.775312
1816000,-0.069432,-0.799663,7.836222,1.827936,-4.051049,-2.821113
1820000,-0.167594,-0.814029,7.991845,0.545493,-4.112117,-2.408900
1824000,-0.160412,-0.907402,8.097190,-0.874354,-3.837308,-1.920350
1828000,-0.275333,-0.897826,8.049306,-1.836186,-3.593034,-1.111190
1832000,-0.258574,-0.890643,8.200141,-3.027026,-2.875476,-0.256228
1836000,-0.215478,-1.077391,8.331821,-2.889621,-2.112118,0.766673
1840000,-0.208296,-1.036689,8.398860,-2.996492,-1.822041,1.362093
1844000,-0.165200,-1.101333,8.473080,-3.347636,-1.654102,2.064383
1848000,-0.213084,-1.108515,8.652645,-3.561377,-1.348759,2.384994
1852000,-0.239420,-1.101333,8.884883,-3.179698,-1.272423,2.888810
1856000,-0.356736,-1.106121,8.971074,-2.080461,-1.654102,3.789574
1860000,-0.304064,-1.240196,8.959103,-0.828552,-1.333492,4.583467
1864000,-0.193930,-1.319205,9.040505,-0.004125,-0.753339,4.995681
1868000,-0.148441,-1.395820,8.786720,0.545493,-0.066316,5.270490
1872000,-0.067038,-1.369483,8.841787,0.927172,0.239028,5.423162
1876000,-0.225055,-1.448492,8.834604,0.835569,0.406966,5.606368
1880000,-0.268151,-1.388637,9.002198,1.354653,-0.783873,5.743773
1884000,-0.270545,-1.436521,9.076419,1.934806,-1.440362,6.262856
1888000,-0.292093,-1.412579,9.100361,2.209615,-1.822041,6.461329
1892000,-0.356736,-1.350330,9.093178,2.179081,-1.394560,7.362093
1896000,-0.160412,-1.199495,9.133880,2.163814,0.147424,8.537665
1900000,-0.081403,-1.197101,9.093178,1.843203,2.177959,9.530031
1904000,0.131681,-1.065420,8.935161,1.293585,4.391699,10.171253
1908000,0.514753,-0.988805,8.975863,0.942440,7.338264,9.820107
1912000,0.828394,-0.883460,9.033323,0.911905,11.093989,8.583467
1916000,0.866701,-0.794875,8.877700,1.904272,13.246661,6.369727
1920000,0.706290,-0.735020,8.803479,3.537859,13.765745,4.354459
1924000,0.411803,-0.677559,8.731653,4.347020,11.918416,2.781940
1928000,0.198719,-0.543484,8.769960,4.805035,9.414599,1.575833
1932000,0.165200,-0.526724,8.796297,4.972974,7.017653,0.949879
1936000,0.225055,-0.605733,8.734048,5.721066,5.658875,0.537665
1940000,0.335188,-0.651223,8.549694,6.698165,5.750478,0.247589
1944000,0.409408,-0.634463,8.418014,6.713432,7.017653,-0.073022
1948000,0.339977,-0.588974,8.183381,6.118012,8.254294,-0.515770
1952000,0.292093,-0.624887,7.963115,5.232516,8.926050,-0.561571
1956000,0.110133,-0.605733,7.769185,3.934806,9.414599,-0.408900
1960000,0.011971,-0.624887,7.596802,1.934806,8.864982,-0.515770
1964000,0.002394,-0.603339,7.733272,0.194348,7.552005,-0.225693
1968000,-0.033519,-0.636858,7.706935,-1.408705,6.635974,-0.103556
1972000,0.071826,-0.814029,7.927202,-2.507942,6.987119,0.079650
1976000,0.057461,-0.897826,7.697359,-4.340003,7.414600,0.140719
1980000,0.014365,-0.883460,7.817069,-6.385805,6.849715,0.171253
1984000,-0.031125,-1.077391,7.963115,-8.462141,5.643608,0.003314
1988000,0.002394,-1.177947,8.147469,-8.889622,4.330631,-0.286762
1992000,-0.237026,-1.307234,8.607155,-8.874354,4.101623,-0.042487
1996000,-0.603339,-1.300052,8.738836,-9.133897,2.010020,0.232322
