time_us,ax,ay,az,gx,gy,gz
0,-0.531513,-1.345541,8.315063,-4.599545,8.590172,4.186521
4000,-0.486023,-1.280898,8.291121,-4.736950,9.109256,4.110185
8000,-0.605733,-1.295263,8.157045,-5.256034,9.246661,3.820108
12000,-0.519542,-1.290475,8.226477,-5.744583,9.216126,3.545299
16000,-0.593762,-1.297657,8.410830,-5.988858,8.055821,3.117818
20000,-0.581791,-1.350330,8.470686,-5.652981,7.277195,2.476597
24000,-0.457293,-1.309628,8.508993,-4.965958,7.170325,1.835375
28000,-0.529119,-1.323994,8.461109,-4.401072,6.269562,1.087284
32000,-0.512359,-1.345541,8.341399,-4.049927,4.345898,-0.134090
36000,-0.440533,-1.407791,8.418014,-3.393438,2.284829,-0.989052
40000,-0.471658,-1.450886,8.456321,-2.767484,0.315363,-2.225693
44000,-0.438139,-1.534683,8.607155,-1.897255,-1.730438,-3.538671
48000,-0.483629,-1.508347,8.698134,-0.767484,-4.051049,-5.294395
52000,-0.569820,-1.618480,8.623915,0.682898,-6.157919,-6.561571
56000,-0.665588,-1.640028,8.585608,2.179081,-7.226621,-7.477602
60000,-0.746991,-1.604115,8.609550,3.018775,-7.867843,-7.813479
64000,-0.936133,-1.721431,8.475474,3.492058,-8.325858,-7.782945
68000,-0.952892,-1.740585,8.418014,3.415722,-8.432729,-7.584472
72000,-1.043872,-1.726219,8.501810,2.484425,-5.760972,-6.668441
76000,-1.163582,-1.723825,8.298303,1.308852,-3.073950,-5.141724
80000,-1.268927,-1.704672,8.398860,-0.553744,-1.257156,-3.752411
84000,-1.209072,-1.716643,8.475474,-0.752217,0.391699,-2.286762
88000,-1.230620,-1.726219,8.470686,-1.088094,2.071089,-0.821113
92000,-1.165976,-1.745373,8.504205,-1.851454,3.078722,0.278123
96000,-1.010353,-1.714248,8.676587,-2.843820,4.269562,1.056749
100000,-0.919373,-1.675941,8.786720,-3.378171,5.811547,1.636902
104000,-0.871489,-1.649605,8.717288,-3.332370,7.307730,1.636902
108000,-0.885855,-1.683124,8.779537,-3.149163,7.124524,1.743772
112000,-0.981623,-1.640028,8.700529,-2.614812,5.689409,1.239955
116000,-0.936133,-1.539472,8.695741,-2.110996,3.521470,0.904078
120000,-0.943315,-1.604115,8.698134,-1.607178,1.155058,0.232322
124000,-0.926556,-1.568202,8.736442,-1.469774,-1.486163,-0.561571
128000,-0.873884,-1.604115,8.755595,-1.301835,-3.699904,-0.760045
132000,-0.897826,-1.541866,8.793902,-1.103362,-5.333491,-1.355464
136000,-0.885855,-1.587356,8.882488,-0.752217,-6.707537,-1.691342
140000,-0.790087,-1.635240,8.930372,-0.049927,-7.516697,-2.088289
144000,-0.735020,-1.637634,8.851364,0.530226,-7.104484,-2.424167
148000,-0.842759,-1.618480,8.746018,1.140913,-6.875476,-2.515770
152000,-0.840365,-1.659182,8.564059,1.156180,-6.127385,-2.546304
156000,-0.938527,-1.606509,8.477868,0.866104,-5.669369,-1.935617
160000,-0.828394,-1.654393,8.556877,0.499691,-4.692270,-1.752411
164000,-0.852336,-1.687912,8.640674,0.606562,-3.180820,-1.370732
168000,-0.900220,-1.721431,8.631097,0.911905,-2.249522,-1.202793
172000,-0.914585,-1.726219,8.664616,1.553127,-1.883110,-0.973785
176000,-0.890643,-1.738190,8.769960,1.843203,-1.623568,-0.622640
180000,-0.871489,-1.738190,8.825027,2.347020,-1.867843,-0.515770
184000,-0.921768,-1.726219,8.808268,2.698165,-2.432728,-0.271495
188000,-0.885855,-1.666364,8.757990,2.728699,-2.371660,-0.073022
192000,-0.775721,-1.625663,8.753201,2.682898,-1.119751,0.751406
196000,-0.723049,-1.637634,8.640674,2.743967,1.048188,1.056749
200000,-0.660800,-1.544260,8.542512,2.972974,2.926050,1.331558
204000,-0.567426,-1.525106,8.573636,3.568394,4.834447,1.438429
208000,-0.502782,-1.503559,8.497022,4.148547,6.483303,1.407894
212000,-0.696713,-1.441309,8.370130,4.209615,6.987119,1.423162
216000,-0.689530,-1.335965,8.216900,3.079844,7.353531,1.545299
220000,-0.742203,-1.376666,8.310274,1.858470,8.422234,1.713238
224000,-0.744597,-1.362301,8.269572,1.492058,8.697042,2.064383
228000,-0.763750,-1.367089,8.212111,1.217249,8.849714,2.568200
232000,-0.754174,-1.302446,8.228871,0.530226,7.903150,2.308658
236000,-0.701501,-1.386243,8.255207,-0.141530,5.887883,1.881177
240000,-0.656011,-1.347936,8.298303,-0.294202,4.529104,1.331558
244000,-0.773327,-1.381454,8.159439,-0.385804,2.574905,0.965146
248000,-0.792481,-1.340753,8.317456,-0.569010,-0.295324,0.140719
252000,-0.768539,-1.312023,8.327033,-0.355270,-2.341125,0.125452
256000,-0.694318,-1.350330,8.422802,-0.630080,-3.196087,0.201787
260000,-0.656011,-1.374272,8.370130,-0.874354,-2.936545,-0.011953
264000,-0.612916,-1.374272,8.410830,-1.378171,-2.280056,-0.195159
268000,-0.596156,-1.367089,8.367735,-1.668247,-1.501431,-0.302029
272000,-0.622492,-1.383849,8.267179,-2.019392,-1.196087,-0.393632
276000,-0.612916,-1.462857,8.293514,-2.034660,-1.165553,-0.653174
280000,-0.603339,-1.493982,8.468291,-2.355270,-1.104484,-0.897449
284000,-0.653617,-1.501164,8.480263,-2.492675,-1.028148,-0.851648
288000,-0.696713,-1.604115,8.602366,-2.813286,-1.364026,-0.637907
292000,-0.756568,-1.692701,8.700529,-2.599545,-1.180820,-0.683709
296000,-0.735020,-1.625663,8.690952,-2.416339,-1.470896,-0.989052
300000,-0.663194,-1.659182,8.726865,-1.866720,-1.760972,-1.355464
304000,-0.656011,-1.637634,8.736442,-1.423972,-2.249522,-1.782945
308000,-0.732626,-1.692701,8.734048,-0.660614,-2.921278,-2.195159
312000,-0.684742,-1.704672,8.736442,-0.004125,-3.058682,-2.240961
316000,-0.835576,-1.697489,8.657434,0.560760,-2.890743,-2.317297
320000,-0.888249,-1.716643,8.604761,0.423356,-2.386927,-2.149358
324000,-0.948104,-1.709460,8.626308,0.194348,-2.280056,-1.615006
328000,-0.945710,-1.668759,8.765172,0.072211,-0.936545,-0.927984
332000,-0.955287,-1.704672,8.808268,-0.034660,0.101623,-0.393632
336000,-0.890643,-1.659182,8.858546,-0.049927,0.727577,-0.027220
340000,-0.897826,-1.654393,8.822633,-0.019392,1.124524,0.079650
344000,-0.735020,-1.649605,8.827422,-0.141530,2.177959,0.140719
348000,-0.780510,-1.675941,8.793902,-0.110996,3.002386,0.476597
352000,-0.677559,-1.663970,8.956709,0.087478,4.391699,0.568200
356000,-0.758962,-1.570596,8.707711,0.606562,5.765745,0.827742
360000,-0.746991,-1.632846,8.623915,0.713432,7.246661,0.888810
364000,-0.670376,-1.709460,8.631097,0.713432,7.964219,0.781940
368000,-0.720655,-1.651999,8.578424,1.034043,8.239027,0.186520
372000,-0.768539,-1.716643,8.599973,1.034043,8.132157,-0.225693
376000,-0.806846,-1.707066,8.669404,1.308852,7.460402,-0.500503
380000,-0.924162,-1.709460,8.657434,1.400455,5.918417,-0.973785
384000,-0.998382,-1.699883,8.784326,2.026409,4.055821,-1.004319
388000,-0.936133,-1.752556,8.746018,2.285951,2.498570,-1.202793
392000,-0.969652,-1.742979,8.767567,2.942440,1.429867,-1.248594
396000,-0.957681,-1.750161,8.676587,3.278317,-0.035782,-1.553938
400000,-0.928950,-1.683124,8.650250,3.721066,-0.860209,-1.660808
404000,-0.952892,-1.647211,8.640674,3.812669,-1.730438,-1.706609
408000,-0.976834,-1.733402,8.662222,3.751600,-2.570133,-1.523403
412000,-0.914585,-1.745373,8.779537,3.797401,-2.600667,-1.340197
416000,-0.960075,-1.661576,8.779537,4.011142,-1.867843,-1.004319
420000,-0.940921,-1.625663,8.683769,4.301219,-1.043415,-0.042487
424000,-0.883460,-1.644817,8.643068,4.652363,-0.478530,-0.103556
428000,-0.919373,-1.546654,8.741230,4.606562,0.193226,0.339192
432000,-0.940921,-1.544260,8.609550,4.530226,0.910783,0.797207
436000,-0.914585,-1.515530,8.619126,4.499691,1.139791,0.980413
440000,-0.859518,-1.486799,8.532935,4.133279,1.429867,1.163620
444000,-0.876278,-1.493982,8.549694,4.148547,1.750478,1.468963
448000,-0.758962,-1.455675,8.418014,4.118012,1.964218,1.560566
452000,-0.768539,-1.426944,8.257602,3.659997,2.452768,1.820108
456000,-0.682347,-1.400608,8.092402,2.942440,3.124524,1.468963
460000,-0.725443,-1.367089,8.078036,2.224883,3.552005,1.362093
464000,-0.699107,-1.352724,8.288726,1.873737,3.674142,1.239955
468000,-0.629675,-1.362301,8.219295,2.347020,3.109257,0.843009
472000,-0.608127,-1.359907,8.257602,2.408089,2.040554,0.110184
476000,-0.620098,-1.300052,8.267179,2.560760,0.712310,-0.714243
480000,-0.703895,-1.355118,8.310274,2.911905,-0.921278,-1.828747
484000,-0.802058,-1.359907,8.166622,3.385188,-2.570133,-2.866915
488000,-0.912191,-1.400608,8.135497,3.705798,-4.677003,-3.294396
492000,-1.046266,-1.426944,8.080431,3.675264,-6.203721,-3.630274
496000,-1.185130,-1.434127,8.140285,2.881371,-6.982347,-3.126457
500000,-1.048660,-1.403002,8.257602,2.133279,-6.402194,-2.683709
504000,-1.132457,-1.443704,8.176199,1.385188,-5.226621,-1.813480
508000,-1.139640,-1.321599,8.111555,0.453890,-4.417461,-1.080655
512000,-1.151611,-1.395820,8.233660,-0.691148,-4.631201,-0.210426
516000,-1.086968,-1.426944,8.339005,-1.469774,-4.570133,0.751406
520000,-1.039083,-1.395820,8.532935,-1.912522,-3.959446,1.239955
524000,-1.058237,-1.367089,8.564059,-2.217866,-3.822041,1.606368
528000,-0.957681,-1.383849,8.602366,-2.446873,-3.806774,1.835375
532000,-0.852336,-1.355118,8.688558,-2.019392,-3.272423,2.446062
536000,-0.749385,-1.393425,8.851364,-1.179698,-3.150285,2.003314
540000,-0.660800,-1.438915,8.904037,-0.294202,-3.333492,1.652169
544000,-0.569820,-1.429338,8.956709,0.988241,-3.745705,0.843009
548000,-0.474052,-1.350330,8.927979,2.545493,-4.325858,0.079650
552000,-0.486023,-1.340753,8.872911,4.133279,-5.012881,-1.156991
556000,-0.517148,-1.460463,8.832211,5.003509,-5.608301,-2.286762
560000,-0.608127,-1.472434,8.793902,5.721066,-6.356392,-3.202793
564000,-0.612916,-1.515530,8.681376,6.667630,-6.005247,-3.431800
568000,-0.730232,-1.589750,8.616732,8.682898,-3.348759,-2.744777
572000,-1.211466,-1.252167,8.501810,6.056943,-5.043415,-4.424167
576000,-0.730232,-1.462857,8.310274,9.293585,0.040554,-2.057755
580000,-1.019930,-1.474828,8.173804,5.507325,-3.562499,-2.592106
584000,-0.988805,-1.513135,8.073248,5.171447,-0.264789,-1.844014
588000,-1.024718,-1.501164,7.783550,4.255417,1.613073,-0.775312
592000,-0.998382,-1.462857,8.130709,1.919539,5.185593,0.491864
596000,-1.120486,-1.517924,8.066066,0.560760,4.803913,1.377360
600000,-1.060631,-1.438915,7.982268,0.423356,9.521470,3.117818
604000,-1.082179,-1.505953,8.123527,-1.469774,11.750478,4.415528
608000,-1.072602,-1.450886,8.339005,-2.874354,12.498569,5.285757
612000,-1.103727,-1.513135,8.257602,-3.347636,12.269562,5.636902
616000,-1.115698,-1.501164,8.365341,-3.958324,9.811546,5.652169
620000,-1.108515,-1.539472,8.590396,-4.248401,6.712310,5.331559
624000,-1.065420,-1.637634,8.875306,-3.362904,3.429867,5.041482
628000,-0.909797,-1.654393,8.927979,-1.164430,0.666508,4.476597
632000,-0.806846,-1.659182,9.074024,1.003508,-1.883110,3.606368
636000,-0.775721,-1.611298,9.162610,2.469157,-3.806774,2.430795
640000,-0.689530,-1.599327,9.064447,3.492058,-4.921278,1.346826
644000,-0.770933,-1.594538,8.796297,3.934806,-4.890743,0.705604
648000,-0.854730,-1.663970,8.681376,3.766867,-4.325858,0.476597
652000,-0.871489,-1.620875,8.511387,3.522592,-3.287690,0.751406
656000,-1.005565,-1.601721,8.394072,3.110379,-2.646469,1.301024
660000,-1.003170,-1.479617,8.324639,2.056943,-1.562499,2.278123
664000,-1.024718,-1.498770,8.257602,0.972974,-0.677003,2.858276
668000,-1.027112,-1.460463,8.250419,-0.416339,-0.951812,3.316291
672000,-0.876278,-1.436521,8.166622,-1.881988,-3.715171,3.316291
676000,-0.761356,-1.357512,8.542512,-3.072828,-1.898377,3.102551
680000,-0.569820,-1.434127,8.451532,-1.714049,-0.707537,3.377360
684000,-0.550666,-1.355118,8.798691,-2.141530,-0.325858,2.583467
688000,-0.459687,-1.388637,8.937555,-1.423972,0.269562,1.667436
692000,-0.579397,-1.400608,8.813056,-0.385804,-1.058682,0.690337
696000,-0.572214,-1.386243,8.741230,0.423356,-1.089217,0.491864
700000,-0.699107,-1.369483,8.623915,0.041676,-2.310591,-0.500503
704000,-0.600945,-1.407791,8.631097,0.545493,-3.760972,-0.943251
708000,-0.672771,-1.477222,8.743625,1.339386,-4.066316,-1.477602
712000,-0.555455,-1.477222,8.693346,1.965340,-4.325858,-1.706609
716000,-0.615310,-1.441309,8.688558,1.690531,-3.623568,-1.996686
720000,-0.603339,-1.477222,8.561666,1.736333,-2.463263,-1.782945
724000,-0.857124,-1.386243,8.403648,1.476791,-1.150285,-1.630274
728000,-0.878672,-1.412579,8.298303,1.064577,-0.402194,-1.294396
732000,-0.962469,-1.426944,8.166622,0.591295,-0.264789,-0.714243
736000,-1.051055,-1.414973,8.006210,-0.385804,0.040554,0.171253
740000,-1.060631,-1.460463,8.135497,-1.591912,-0.539598,0.873543
744000,-1.094150,-1.448492,8.233660,-2.156797,-1.684637,1.575833
748000,-0.919373,-1.493982,8.520964,-2.004125,-2.631201,1.942245
752000,-0.792481,-1.541866,8.652645,-0.996492,-3.409827,2.049116
756000,-0.713472,-1.470040,8.738836,-0.462140,-4.692270,1.774307
760000,-0.682347,-1.448492,8.652645,-0.217866,-5.867843,1.224688
764000,-0.579397,-1.398214,8.738836,0.423356,-6.341125,0.858276
768000,-0.548272,-1.371878,8.755595,0.514959,-6.112117,0.659803
772000,-0.634463,-1.376666,8.734048,0.499691,-6.112117,0.339192
776000,-0.577003,-1.458069,8.791509,0.988241,-5.364026,-0.134090
780000,-0.529119,-1.436521,8.892065,0.972974,-4.280056,-0.057755
784000,-0.536301,-1.434127,8.868123,1.064577,-2.249522,0.262856
788000,-0.677559,-1.505953,8.839393,1.034043,-0.463263,0.675070
792000,-0.744597,-1.505953,8.839393,0.805035,0.864982,0.690337
796000,-0.751779,-1.503559,8.887277,0.835569,2.086356,1.316291
800000,-0.730232,-1.582567,8.832211,1.125646,4.086356,2.186520
804000,-0.790087,-1.551443,8.805874,1.354653,5.857348,2.308658
808000,-0.854730,-1.520318,8.604761,1.018775,7.231394,2.644536
812000,-0.854730,-1.539472,8.597578,0.576027,7.674142,2.629268
816000,-0.859518,-1.517924,8.667010,0.560760,7.933684,3.087284
820000,-0.735020,-1.479617,8.700529,1.034043,9.384066,3.209421
824000,-0.756568,-1.489193,8.801085,1.308852,10.300096,3.575833
828000,-0.770933,-1.479617,8.590396,1.492058,10.361164,3.316291
832000,-0.711078,-1.438915,8.588001,1.537859,9.948951,2.751406
836000,-0.574608,-1.455675,8.599973,2.224883,8.880248,2.049116
840000,-0.663194,-1.426944,8.497022,2.621829,6.635974,1.331558
844000,-0.723049,-1.352724,8.585608,2.743967,3.506203,0.369726
848000,-0.646434,-1.395820,8.621520,3.049310,0.819180,-0.332564
852000,-0.581791,-1.362301,8.762778,3.736333,-1.012881,-1.141724
856000,-0.634463,-1.326388,8.650250,4.133279,-1.745705,-0.912716
860000,-0.660800,-1.316811,8.420407,3.965340,-1.974713,-1.019587
864000,-0.610521,-1.357512,8.315063,3.324119,-1.760972,-1.126457
868000,-0.553061,-1.285686,8.236053,2.347020,-1.135018,-1.050121
872000,-0.608127,-1.271321,8.262390,1.354653,-0.295324,-0.821113
876000,-0.586579,-1.333570,8.161834,0.423356,0.040554,-0.897449
880000,-0.667982,-1.367089,8.145074,-0.767484,-0.310591,-1.080655
884000,-0.715866,-1.355118,8.324639,-1.790385,-0.936545,-1.218060
888000,-0.792481,-1.479617,8.248025,-2.340003,-1.073950,-1.187526
892000,-0.842759,-1.450886,8.437167,-2.843820,-1.669369,-0.637907
896000,-0.981623,-1.537078,8.614338,-2.965957,-2.295324,-0.363098
900000,-0.893037,-1.491588,8.650250,-2.217866,-1.806774,0.201787
904000,-0.806846,-1.501164,8.722076,-1.698782,-1.654102,0.186520
908000,-0.837971,-1.470040,8.726865,-1.775118,-2.356392,-0.393632
912000,-0.835576,-1.465251,8.772355,-1.698782,-3.791507,-0.576838
916000,-0.967257,-1.482011,8.681376,-1.423972,-5.409827,-0.912716
920000,-0.893037,-1.424550,8.695741,-1.042293,-7.165553,-1.294396
924000,-0.907402,-1.460463,8.657434,-0.813286,-7.867843,-1.080655
928000,-0.945710,-1.379060,8.650250,-0.859087,-8.524332,-1.202793
932000,-0.873884,-1.381454,8.714894,-0.584278,-8.157919,-0.760045
936000,-0.785298,-1.429338,8.659827,0.026409,-6.539598,-0.408900
940000,-0.708684,-1.393425,8.588001,0.438623,-5.272423,-0.302029
944000,-0.725443,-1.338359,8.453926,0.224882,-4.264789,-0.683709
948000,-0.658405,-1.300052,8.339005,0.301218,-3.043415,-0.332564
952000,-0.708684,-1.228225,8.367735,-0.324736,-1.806774,-0.149358
956000,-0.679953,-1.163582,8.236053,-1.072828,-0.707537,0.171253
960000,-0.454898,-1.206678,8.513782,-0.431606,3.994753,1.789574
964000,-0.711078,-1.106121,8.312668,-1.912522,1.292463,1.148352
968000,-0.380678,-1.106121,8.695741,-1.133896,2.406966,0.507131
972000,-0.275333,-1.211466,8.640674,-1.317102,2.697043,0.094917
976000,-0.402226,-1.280898,8.631097,-0.370538,1.567272,-1.111190
980000,-0.399832,-1.261744,8.645462,0.637096,1.384066,-1.691342
984000,-0.586579,-1.379060,8.710106,0.682898,0.055821,-2.760045
988000,-0.735020,-1.498770,8.623915,1.400455,-2.051049,-3.462335
992000,-0.720655,-1.462857,8.662222,2.423356,-2.264789,-3.340197
996000,-0.758962,-1.438915,8.657434,2.423356,-1.623568,-2.866915
1000000,-0.780510,-1.398214,8.588001,2.362287,-0.646469,-2.393632
1004000,-0.758962,-1.484405,8.576031,2.576027,0.422234,-1.935617
1008000,-0.699107,-1.505953,8.451532,2.469157,1.903150,-1.691342
1012000,-0.701501,-1.467646,8.408437,2.270684,3.613073,-1.156991
1016000,-0.730232,-1.513135,8.379706,1.721066,5.231394,-1.599739
1020000,-0.682347,-1.482011,8.348581,1.400455,5.552005,-1.889816
1024000,-0.763750,-1.434127,8.427590,1.278317,5.200860,-2.073022
1028000,-0.876278,-1.549049,8.652645,1.415722,4.697043,-2.118823
1032000,-1.022324,-1.565808,8.784326,1.919539,3.628341,-1.950884
1036000,-1.010353,-1.568202,8.676587,2.362287,3.475669,-1.492869
1040000,-1.046266,-1.508347,8.693346,2.148547,3.322997,-0.866915
1044000,-1.125275,-1.493982,8.477868,1.629462,3.918417,-0.302029
1048000,-1.060631,-1.525106,8.319851,0.972974,4.758111,0.644536
1052000,-1.079785,-1.498770,8.271967,-0.156797,5.200860,0.888810
1056000,-1.074997,-1.379060,8.135497,-1.454507,4.651241,1.453696
1060000,-1.221043,-1.343147,8.039729,-3.057560,0.697043,0.949879
1064000,-0.885855,-1.429338,8.504205,-3.057560,2.544371,1.407894
1068000,-1.012747,-1.422156,8.449138,-3.027026,0.406966,1.591100
1072000,-0.907402,-1.400608,8.556877,-2.721682,0.040554,1.438429
1076000,-0.842759,-1.388637,8.707711,-2.950690,-0.631201,1.407894
1080000,-0.854730,-1.347936,8.616732,-3.057560,-1.867843,1.087284
1084000,-0.871489,-1.319205,8.616732,-2.584278,-2.020514,1.224688
1088000,-0.821211,-1.340753,8.422802,-2.920156,-2.157919,1.224688
1092000,-0.775721,-1.213860,8.374918,-3.423972,-2.432728,0.995681
1096000,-0.778116,-1.290475,8.422802,-3.500308,-2.417461,1.194154
1100000,-0.651223,-1.292869,8.499416,-3.133896,-1.837308,1.056749
1104000,-0.550666,-1.314417,8.619126,-2.691148,-1.012881,0.446062
1108000,-0.502782,-1.297657,8.640674,-1.775118,-1.287690,-0.698976
1112000,-0.577003,-1.352724,8.621520,-0.935423,-2.310591,-1.874548
1116000,-0.746991,-1.386243,8.592790,0.087478,-4.203721,-2.897449
1120000,-0.852336,-1.479617,8.599973,0.499691,-6.600667,-3.431800
1124000,-0.914585,-1.580173,8.731653,1.232516,-8.600668,-4.057755
1128000,-1.019930,-1.568202,8.607155,1.522592,-9.516698,-4.408900
1132000,-1.024718,-1.632846,8.777143,2.041676,-9.425095,-3.889816
1136000,-1.000776,-1.635240,8.698134,2.606562,-8.234255,-3.187526
1140000,-0.782904,-1.666364,8.803479,3.492058,-1.287690,-0.821113
1144000,-1.218649,-1.620875,8.374918,2.056943,-2.096850,-0.469968
1148000,-1.077391,-1.517924,8.576031,0.560760,-1.272423,-0.240961
1152000,-1.003170,-1.486799,8.595184,-0.324736,0.926050,1.102551
1156000,-1.163582,-1.508347,8.576031,-0.523209,2.437501,2.278123
1160000,-1.017536,-1.558625,8.561666,-0.843820,5.750478,3.499497
1164000,-1.031901,-1.443704,8.463503,-1.790385,7.719944,4.552933
1168000,-0.952892,-1.517924,8.355764,-1.897255,9.032920,5.117818
1172000,-0.873884,-1.374272,8.365341,-1.866720,11.277195,6.049116
1176000,-0.919373,-1.429338,8.231265,-2.507942,11.277195,6.186521
1180000,-0.881066,-1.367089,8.279149,-2.828552,9.903150,6.018581
1184000,-0.711078,-1.383849,8.204929,-2.798018,7.781012,5.438429
1188000,-0.624887,-1.297657,8.305486,-2.538476,5.490936,4.430795
1192000,-0.591368,-1.386243,8.264784,-2.233133,2.956585,3.545299
1196000,-0.653617,-1.345541,8.312668,-2.248400,-1.547232,1.514765
1200000,-0.344765,-1.498770,8.520964,-0.828552,-0.631201,1.407894
1204000,-0.656011,-1.508347,8.540117,-0.569010,-3.745705,-0.332564
1208000,-0.581791,-1.529895,8.602366,0.682898,-3.669369,-1.248594
1212000,-0.605733,-1.572991,8.746018,1.201982,-3.669369,-1.828747
1216000,-0.811634,-1.589750,8.813056,1.476791,-4.173186,-2.271495
1220000,-0.885855,-1.592144,8.614338,2.102745,-4.432728,-2.500503
1224000,-0.976834,-1.589750,8.554482,2.072211,-4.020514,-1.782945
1228000,-1.022324,-1.680730,8.492233,1.492058,-3.776240,-1.279129
1232000,-1.084573,-1.625663,8.592790,0.652363,-3.196087,-0.836380
1236000,-1.019930,-1.618480,8.633492,-0.095728,-1.806774,-0.088289
1240000,-0.926556,-1.719037,8.707711,-0.385804,-0.218988,0.568200
1244000,-0.890643,-1.644817,8.542512,-0.752217,1.353531,0.965146
1248000,-0.936133,-1.692701,8.544906,-0.767484,1.490936,1.438429
1252000,-0.866701,-1.795651,8.434772,-0.859087,0.773379,1.453696
1256000,-0.785298,-1.946486,8.554482,-0.782751,-0.157919,1.270490
1260000,-0.598550,-1.944092,8.573636,-0.599545,-0.967079,0.644536
1264000,-0.644040,-2.147599,8.530540,-0.782751,-2.142652,-0.240961
1268000,-0.538695,-2.224213,8.456321,-0.630080,-3.608301,-1.141724
1272000,-0.572214,-2.461239,8.700529,-0.507942,-4.432728,-2.088289
1276000,-0.584185,-2.746149,8.717288,0.133279,-5.562499,-3.080655
1280000,-0.567426,-2.925714,8.729259,0.301218,-7.867843,-4.363098
1284000,-0.241814,-3.148375,8.712500,1.675264,-7.501431,-5.111189
1288000,-0.440533,-3.287239,8.825027,1.018775,-12.447996,-7.889815
1292000,-0.390255,-3.512294,9.009381,3.644730,-11.745706,-8.821114
1296000,-0.660800,-3.634398,9.313444,3.858470,-13.684637,-9.813480
1300000,-0.773327,-3.859453,9.387665,4.270684,-17.119751,-10.790579
1304000,-0.976834,-4.027047,9.524135,5.186715,-18.707539,-11.187526
1308000,-1.115698,-4.228160,9.816227,6.026409,-19.394560,-10.011953
1312000,-1.601721,-4.144363,10.575189,6.285951,-24.203720,-9.721877
1316000,-0.095768,-5.097255,10.290278,16.377554,-11.760973,-5.798213
1320000,-0.957681,-4.122815,9.686940,11.766868,-8.768606,-4.821113
1324000,-0.943315,-4.209007,9.591172,6.972974,-10.753339,-4.469968
1328000,-0.754174,-4.316746,9.981427,5.736333,-6.814407,-2.729510
1332000,-0.735020,-4.522647,10.273520,6.285951,-1.669369,-0.821113
1336000,-0.931344,-4.568137,10.333375,7.751600,-1.913644,0.522398
1340000,-0.553061,-4.618415,10.163386,9.186714,-2.325858,1.407894
1344000,-0.110133,-4.671088,10.235212,11.430989,1.826814,1.942245
1348000,0.246603,-4.458004,9.873688,12.576027,7.613074,1.484230
1352000,0.095768,-4.364630,9.464279,11.675264,8.956584,-0.103556
1356000,-0.095768,-4.146757,9.234436,10.652364,8.208493,-1.645541
1360000,-0.478840,-4.165911,9.076419,10.209616,5.613073,-2.851648
1364000,-0.610521,-4.113238,8.875306,11.278317,2.391699,-3.385999
1368000,-1.197101,-4.144363,8.343793,12.637096,-14.478530,-6.225693
1372000,-0.086191,-4.220978,8.532935,14.102745,-8.356393,-3.660808
1376000,-0.399832,-4.230555,8.408437,14.255417,-3.623568,-4.592105
1380000,-0.414197,-4.309563,7.687782,14.026409,-5.730438,-4.393632
1384000,-0.198719,-4.288015,7.781156,12.209615,-9.150286,-6.561571
1388000,-0.098162,-4.474763,7.943961,8.163814,-13.394561,-8.744778
1392000,-0.093374,-4.604050,7.747637,6.377554,-20.142653,-11.798213
1396000,0.361524,-4.728549,7.970297,5.186715,-17.119751,-12.775312
1400000,0.323217,-4.944026,8.331821,3.690531,-18.005247,-15.874549
1404000,0.986411,-5.351041,8.667010,3.751600,-17.196087,-19.202791
1408000,1.283292,-6.210559,9.232041,6.270684,-13.791507,-22.989052
1412000,1.108515,-7.067683,9.674969,9.324119,-12.127385,-25.111189
1416000,0.888249,-6.603208,10.216059,8.789768,-8.921278,-25.889814
1420000,1.359907,-6.344635,10.551247,7.492058,-2.249522,-29.370731
1424000,0.773327,-6.121974,10.618284,6.637096,2.513837,-33.172256
1428000,0.359130,-6.172252,10.931925,6.652363,8.330630,-35.004318
1432000,-0.687136,-6.438008,10.714052,6.514959,10.437500,-35.828747
1436000,-1.510741,-6.418855,10.441113,6.438623,8.177958,-35.889816
1440000,-2.236184,-6.153099,10.314221,5.201982,3.933684,-35.233326
1444000,-2.861071,-6.287174,10.340557,3.766867,1.399333,-32.439434
1448000,-3.438074,-6.184223,10.371682,2.224883,-6.035781,-29.172258
1452000,-3.895366,-6.165070,10.522516,1.278317,-13.486164,-25.218060
1456000,-3.955221,-6.253655,10.675745,1.156180,-19.241888,-20.042486
1460000,-3.888184,-6.363788,10.565612,1.858470,-23.089216,-13.996686
1464000,-3.687071,-6.572083,10.601525,2.499691,-24.020515,-7.279129
1468000,-3.435679,-6.457162,10.673351,2.499691,-24.096851,-0.943251
1472000,-3.002329,-6.234501,10.438720,1.858470,-23.623568,4.812475
1476000,-2.434903,-6.143522,10.395624,1.675264,-20.463263,9.911711
1480000,-1.867477,-6.016629,9.971850,0.011142,-17.593035,13.148352
1484000,-1.101333,-5.920861,9.165004,0.331753,-14.356393,15.407894
1488000,-0.945710,-5.573701,8.841787,-1.943056,-13.379293,15.087283
1492000,-0.857124,-5.394136,8.451532,-4.492675,-15.913645,14.003314
1496000,-0.792481,-5.178658,8.398860,-6.156797,-14.783874,14.384994
1500000,-1.077391,-5.049371,8.422802,-7.683515,-16.951813,14.155986
1504000,-1.017536,-4.999093,8.346188,-9.194965,-21.944180,14.262856
1508000,-0.943315,-4.900931,8.298303,-8.431606,-22.371660,14.873543
1512000,-1.007959,-4.814740,8.034941,-8.110995,-25.089216,15.148352
1516000,-0.962469,-4.723760,7.917625,-7.317102,-28.539598,15.667436
1520000,-1.000776,-4.446033,7.742848,-7.103362,-32.417461,16.064383
1524000,-0.933739,-4.268862,7.580042,-7.897255,-36.402195,16.537666
1528000,-0.847547,-4.077325,7.381324,-9.362904,-40.234257,17.087284
1532000,-0.347159,-3.955221,7.189788,-10.034659,-39.806774,17.743773
1536000,-0.260968,-3.715801,7.067683,-10.950690,-37.302959,17.346827
1540000,-0.304064,-3.517082,6.715736,-13.622445,-34.829674,17.392628
1544000,-0.414197,-3.234566,6.361394,-17.332369,-34.142651,16.980413
1548000,-0.428562,-2.873042,6.366182,-22.065193,-33.852577,16.690338
1552000,-0.380678,-2.667141,6.469133,-28.462139,-32.951813,15.865909
1556000,0.960075,-2.209848,6.086061,-35.698780,-24.035782,14.415527
1560000,-1.458069,-2.396596,6.710948,-43.301834,-30.631203,13.484230
1564000,-2.157176,-2.111686,7.316680,-42.004124,-35.699905,18.751406
1568000,-1.651999,-1.869871,7.390901,-41.744583,-34.371658,24.201788
1572000,-1.649605,-1.486799,7.486669,-42.920155,-35.257156,28.461330
1576000,-1.702277,-1.285686,7.891289,-42.233131,-36.997616,32.919346
1580000,-1.740585,-1.225831,8.520964,-37.485039,-35.501431,38.904079
1584000,-1.426944,-1.233014,8.827422,-30.049927,-31.180820,45.545300
1588000,-1.077391,-0.837971,8.765172,-24.507942,-29.241888,49.850643
1592000,-1.565808,-0.531513,8.676587,-20.691147,-30.921278,54.781940
1596000,-1.082179,-0.442927,8.736442,-16.431606,-28.875477,59.087284
1600000,-1.125275,0.007183,8.343793,-13.332370,-28.295324,62.934612
1604000,-0.689530,0.349553,8.355764,-10.950690,-23.974712,66.598732
1608000,-0.660800,0.708684,8.729259,-9.454507,-18.188454,69.926979
1612000,-0.418985,0.962469,8.762778,-4.538477,-7.638835,75.499496
1616000,-0.567426,1.503559,8.437167,-6.675881,-10.417461,76.400261
1620000,-0.351948,1.896208,8.439561,-5.362904,-12.218988,78.247589
1624000,-0.114922,2.341529,8.487445,-6.675881,-11.470897,80.827744
1628000,0.488417,2.825158,8.832211,-5.561378,-4.936545,82.629272
1632000,0.584185,3.543418,8.542512,-9.652981,-5.058682,82.843010
1636000,1.142034,3.945644,8.212111,-13.133897,-4.753339,81.957512
1640000,1.762132,3.974375,8.085219,-16.141529,4.361165,82.262856
1644000,1.893813,4.302381,8.123527,-19.149162,10.864982,81.484230
1648000,1.702277,4.671088,8.176199,-21.668247,14.223760,79.346825
1652000,1.994370,4.862624,8.097190,-23.652979,15.948952,77.133087
1656000,2.092532,5.011064,7.915231,-23.485041,17.261929,75.163620
1660000,1.944092,5.257667,8.030152,-23.179697,16.819180,72.980415
1664000,1.589750,5.573701,8.013393,-22.187330,14.071088,71.010948
1668000,1.546654,5.679047,7.855376,-21.408705,11.704676,70.369728
1672000,1.443704,5.817910,7.797915,-20.248400,11.735210,70.705605
1676000,1.398214,5.856217,7.587225,-18.950689,14.010019,71.499496
1680000,1.472434,5.793968,7.388506,-16.798018,15.490935,73.087288
1684000,1.496376,5.774815,7.187394,-16.080460,16.116890,75.102554
1688000,1.541866,5.997475,7.309498,-15.805652,14.086355,77.102554
1692000,2.109292,5.820304,7.802703,-12.874354,16.437500,80.675072
1696000,2.691083,5.877765,7.939173,-9.317102,20.177958,83.010948
1700000,3.574543,5.827487,7.987057,-4.278934,28.177958,83.087288
1704000,4.398149,5.798757,7.635109,0.530226,34.849712,80.049118
1708000,4.824317,5.906496,7.259220,3.339386,40.864983,74.904076
1712000,5.197812,6.054936,6.940791,3.889004,44.345898,68.247589
1716000,5.705383,5.973533,6.600814,2.438623,46.116890,60.323925
1720000,5.923255,5.748478,6.399701,1.003508,44.590172,49.545300
1724000,6.416461,5.489904,6.157887,0.850837,42.330631,37.285759
1728000,6.517017,5.118803,6.131551,0.942440,42.025288,23.453697
1732000,6.016629,5.015852,6.071695,-2.889621,34.666508,7.255223
1736000,5.825093,4.299986,6.584054,-1.240766,39.277195,-3.462335
1740000,4.438850,3.533842,6.248867,-2.965957,33.475670,-16.515770
1744000,3.526659,3.153164,6.435614,-2.721682,31.567272,-26.546303
1748000,2.214637,2.784456,6.344635,-4.187331,22.513836,-34.775311
1752000,2.123657,2.197877,6.806715,-4.278934,20.086355,-40.622639
1756000,0.991199,1.453280,6.880936,-6.599545,14.941318,-45.889816
1760000,0.208296,1.168370,6.957550,-6.828553,14.193226,-47.019585
1764000,-0.476446,0.622492,7.036559,-10.523210,11.948951,-46.897449
1768000,-1.017536,0.397437,7.381324,-16.049927,12.300096,-45.828747
1772000,-1.388637,-0.069432,7.491457,-20.370537,17.384066,-42.485233
1776000,-2.049437,-0.299275,7.680599,-26.721682,20.010019,-38.958519
1780000,-1.982399,-0.706290,8.006210,-31.378170,27.231394,-33.950882
1784000,-2.094927,-0.952892,8.403648,-35.820919,39.719944,-27.920349
1788000,-2.525883,-1.221043,8.906430,-38.340004,46.239029,-23.477602
1792000,-2.619257,-1.522712,9.078813,-38.614811,52.605438,-19.187525
1796000,-2.774880,-1.819593,9.126697,-38.569012,52.864983,-17.645540
1800000,-2.920926,-1.980005,9.301474,-36.645348,54.162693,-15.538671
1804000,-3.488352,-2.499547,9.751583,-29.042294,60.391701,-7.156991
1808000,-3.361459,-2.329558,9.296685,-32.813286,45.048187,-14.698977
1812000,-3.627216,-2.442086,9.239224,-30.126263,38.177959,-13.996686
1816000,-3.643975,-2.497152,9.186552,-25.790384,31.628342,-12.668442
1820000,-3.720589,-2.595315,9.330204,-22.217865,20.483301,-11.859282
1824000,-3.871424,-2.667141,9.457097,-17.210232,9.948951,-9.721877
1828000,-3.962404,-2.758120,9.476251,-12.126264,-0.218988,-7.340197
1832000,-3.835511,-2.772485,9.251195,-7.225499,-7.318224,-3.660808
1836000,-3.689465,-2.600103,9.028535,-4.324736,-12.738072,0.644536
1840000,-3.330335,-2.568978,8.906430,-3.652980,-18.386927,4.995681
1844000,-2.911349,-2.446874,8.743625,-5.683515,-23.135019,8.827742
1848000,-2.219425,-2.233790,8.772355,-8.355270,-24.661736,12.201787
1852000,-1.572991,-2.063802,8.724471,-11.744583,-23.944180,14.537665
1856000,-0.912191,-1.915361,8.753201,-14.569011,-22.173187,15.942245
1860000,-0.442927,-1.685518,8.781932,-17.088095,-20.447996,15.697970
1864000,0.179565,-1.599327,8.808268,-18.492674,-18.264790,14.522398
1868000,0.548272,-1.640028,8.707711,-19.027025,-16.799141,12.049115
1872000,-0.093374,-1.517924,8.030152,-23.301834,-30.066317,5.423162
1876000,1.312023,-1.503559,9.042900,-19.607178,-19.715172,4.018581
1880000,0.840365,-1.702277,8.978256,-19.744583,-27.028149,-1.721877
1884000,0.526724,-1.649605,8.631097,-19.515575,-34.127384,-6.927983
1888000,0.682347,-1.651999,9.088389,-16.904888,-34.967079,-10.027221
1892000,0.495600,-1.793257,9.445126,-15.897256,-36.447994,-12.668442
1896000,0.351948,-1.915361,9.469068,-13.485042,-40.127384,-14.500503
1900000,0.529119,-1.944092,9.560047,-11.103362,-42.493797,-16.485235
1904000,0.409408,-1.881842,9.595961,-9.576645,-42.890743,-18.073021
1908000,0.366313,-1.819593,9.567230,-8.202599,-42.096851,-19.279127
1912000,0.474052,-1.982399,9.524135,-6.553743,-39.165554,-19.538670
1916000,0.464475,-2.087744,9.562442,-4.981225,-35.318226,-20.393631
1920000,0.165200,-2.159570,9.133880,-4.859087,-35.776241,-21.431799
1924000,0.033519,-2.382231,8.985439,-3.469774,-33.608299,-20.790579
1928000,-0.375890,-2.571373,8.738836,-3.179698,-33.394562,-20.851646
1932000,-0.591368,-2.542642,8.868123,-2.736950,-33.715172,-19.492868
1936000,-0.890643,-2.662352,8.860941,-2.385804,-35.409828,-17.813478
1940000,-0.907402,-2.904167,9.169792,-0.294202,-30.860210,-14.515770
1944000,-1.043872,-2.949656,9.078813,1.247783,-28.173187,-11.538671
1948000,-1.096544,-2.868254,8.899248,1.354653,-26.264790,-8.408899
1952000,-0.912191,-2.961627,8.856153,1.461524,-21.425095,-5.111189
1956000,-0.900220,-3.014300,8.717288,-0.507942,-17.669371,-1.370732
1960000,-0.691924,-2.851494,8.899248,-2.004125,-14.280057,0.064383
1964000,-0.512359,-2.837129,8.877700,-2.324736,-10.921278,1.667436
1968000,-0.301669,-2.829947,8.810662,-2.401072,-8.600668,2.675070
1972000,-0.361524,-2.703054,8.947132,-2.080461,-8.341125,1.835375
1976000,-0.162806,-2.743755,8.846576,0.514959,-8.570133,1.102551
1980000,-0.237026,-2.525883,8.877700,1.324119,-8.860209,0.155986
1984000,-0.146046,-2.439692,9.026140,4.087478,-5.776239,-0.042487
1988000,-0.332794,-2.365471,8.808268,7.018775,-7.638835,-0.302029
1992000,-0.316035,-2.284068,8.590396,5.965341,-11.226622,-1.218060
1996000,-0.186748,-2.303222,8.645462,8.240149,-8.677003,-0.714243
