time_us,ax,ay,az,gx,gy,gz
0,0.890643,-2.085350,9.117120,-8.156797,2.391699,7.331559
4000,0.962469,-2.171541,9.109938,-8.599545,0.010020,5.072017
8000,0.969652,-2.262521,9.136273,-8.538477,-1.623568,3.636902
12000,0.912191,-2.363077,9.399636,-8.965958,-4.264789,1.697971
16000,0.842759,-2.351106,9.538500,-8.095729,-4.218988,1.255223
20000,0.730232,-2.394202,9.552865,-7.485042,-5.364026,-0.408900
24000,0.833182,-2.487576,9.842564,-6.813286,-2.738072,-0.836380
28000,0.888249,-2.600103,10.050858,-5.714049,3.613073,-0.195159
32000,0.744597,-2.624045,10.043676,-4.019392,8.773378,-0.424167
36000,0.509965,-2.636016,9.718064,-3.698782,10.330630,-1.004319
40000,0.378284,-2.643199,9.782708,-3.729316,12.758111,-1.294396
44000,0.263362,-2.722207,9.715671,-3.622446,13.063455,-1.859281
48000,0.067038,-2.846706,9.718064,-2.798018,13.765745,-2.378365
52000,-0.098162,-2.956839,9.861717,-1.378171,13.277195,-3.050121
56000,-0.339977,-3.136404,9.691729,0.484424,13.735210,-3.294396
60000,-0.414197,-3.181894,9.459491,2.285951,14.177958,-3.615006
64000,-0.718261,-3.138798,9.497798,3.950073,14.376431,-3.385999
68000,-1.024718,-3.215413,9.248801,5.492058,12.681775,-3.721877
72000,-1.233014,-3.244143,9.172187,6.499691,9.078722,-4.011953
76000,-1.501164,-3.435679,9.296685,7.339386,5.002387,-4.195159
80000,-1.678335,-3.584120,9.545682,9.156180,2.590173,-3.401266
84000,-1.613692,-3.687071,9.634268,12.377554,3.368799,-2.149358
88000,-1.733402,-3.718195,9.859323,15.889005,4.666509,-0.698976
92000,-1.733402,-3.790021,9.789890,19.400455,5.628341,1.117818
96000,-1.757344,-3.754108,9.641450,22.713432,7.658875,2.446062
100000,-1.793257,-3.746926,9.411607,24.041677,9.200859,4.476597
104000,-1.853112,-3.627216,9.191340,23.873737,10.590172,6.644536
108000,-1.941698,-3.483563,9.112331,23.430990,10.758111,8.781940
112000,-1.628057,-3.454833,9.066842,23.873737,12.513836,11.468963
116000,-1.371878,-3.375824,8.851364,24.774502,16.345898,14.339191
120000,-1.077391,-3.318364,8.635885,25.018776,20.895515,16.155987
124000,-0.876278,-3.160346,8.475474,24.194349,23.338264,17.346827
128000,-0.608127,-3.138798,8.379706,23.339388,23.643608,17.713238
132000,-0.481235,-3.059790,8.432379,22.927174,23.170324,17.530033
136000,-0.385466,-2.956839,8.588001,22.576029,21.826813,16.949881
140000,-0.536301,-2.815581,8.595184,21.354654,18.956585,16.965147
144000,-0.869095,-2.442086,8.243237,19.308851,11.964218,16.446062
148000,-0.459687,-2.202666,8.540117,19.507326,11.674142,17.636902
152000,-0.344765,-2.035071,8.252813,17.537859,10.971851,19.453697
156000,-0.574608,-1.716643,8.573636,16.408089,11.475668,19.743773
160000,-0.316035,-1.541866,8.571242,15.965341,10.605439,21.194155
164000,-0.086191,-1.338359,8.559271,13.919538,8.086355,21.072018
168000,0.328006,-1.137246,8.252813,13.079844,7.185593,19.728506
172000,0.995988,-1.187524,8.494628,13.018775,18.544371,21.209421
176000,0.600945,-0.948104,8.159439,12.209615,11.506203,16.598734
180000,0.969652,-0.871489,8.003817,10.087478,7.735211,12.614001
184000,1.199495,-0.950498,8.066066,9.858470,10.742844,9.667436
188000,0.940921,-0.981623,8.401254,9.736333,9.093989,4.949879
192000,0.574608,-0.933739,8.384495,9.095112,4.880249,1.255223
196000,0.220267,-1.156399,8.439561,11.156180,0.864982,-1.966151
200000,-0.086191,-1.429338,8.695741,13.995874,-0.157919,-4.027220
204000,-0.761356,-1.319205,8.497022,15.629462,-7.593033,-6.317297
208000,-1.053449,-1.278504,8.659827,16.056944,-13.394561,-6.714243
212000,-0.948104,-1.206678,9.021352,16.591295,-16.005247,-5.859281
216000,-0.878672,-1.122881,9.172187,17.308851,-13.944179,-4.378365
220000,-0.833182,-0.936133,9.157822,18.499691,-13.440362,-3.187526
224000,-0.672771,-0.684742,9.045294,19.125647,-8.509065,-0.622640
228000,-0.713472,-0.483629,8.755595,19.156181,-6.386927,1.056749
232000,-0.553061,-0.215478,8.576031,18.347019,-2.386927,3.453696
236000,-0.237026,-0.181959,8.372523,19.827936,2.834447,6.079650
240000,0.050278,0.146046,8.224083,18.759233,5.475669,6.583467
244000,0.462081,0.117316,7.800309,18.469158,8.055821,6.323925
248000,0.569820,0.301669,7.663840,17.156181,10.025287,4.827742
252000,0.696713,0.414197,7.517793,17.369921,13.445134,3.926979
256000,0.629675,0.509965,7.302315,15.675264,13.933683,2.400261
260000,0.746991,0.634463,7.254431,13.690531,15.552004,0.812474
264000,0.639252,0.746991,7.194576,12.362287,15.704676,-1.050121
268000,0.363919,0.988805,7.168240,11.201982,12.941318,-2.851648
272000,0.227449,1.010353,7.034164,10.423356,10.559638,-3.737144
276000,0.256180,1.118092,7.117962,10.011142,8.162691,-4.378365
280000,0.634463,1.319205,7.067683,10.041677,7.063455,-5.691342
284000,0.790087,1.644817,7.048530,9.217249,6.193226,-8.179892
288000,0.787692,1.764527,7.082048,8.698165,5.719944,-10.714244
292000,0.591368,1.798046,6.895301,8.194348,6.193226,-12.469969
296000,0.426168,1.769315,6.667852,6.972974,5.399333,-14.698977
300000,0.086191,1.891419,6.471527,5.049310,4.483303,-15.767678
304000,-0.277727,1.836353,6.354211,1.995875,3.735211,-16.744778
308000,-0.691924,1.786075,6.313510,-0.736950,3.200860,-16.240961
312000,-1.019930,1.668759,6.256049,-3.210232,3.582539,-14.103557
316000,-1.256956,1.759738,6.344635,-6.401072,4.712310,-11.233328
320000,-1.412579,1.738190,6.380548,-9.988858,5.429867,-7.340197
324000,-1.558625,1.769315,6.512228,-13.790385,5.933684,-3.431800
328000,-1.668759,1.814805,6.794744,-18.492674,5.384066,0.949879
332000,-1.881842,1.900996,7.237672,-22.935423,5.490936,6.384994
336000,-1.855506,1.764527,7.587225,-26.370537,5.597806,12.598734
340000,-1.228225,1.843535,7.953538,-28.507942,6.681776,18.339193
344000,-0.651223,2.013524,8.027759,-30.904888,8.452767,22.537666
348000,-0.158017,2.171541,8.422802,-33.439240,8.895515,25.087284
352000,0.524330,2.403779,8.865729,-35.103359,12.742844,26.965147
356000,0.823605,2.571373,9.174581,-36.401070,12.284829,26.614002
360000,1.233014,2.686294,9.514558,-35.851452,15.506203,26.400261
364000,1.434127,2.906561,9.725247,-34.431606,15.506203,25.514765
368000,1.546654,2.985569,9.813833,-32.859085,16.208492,24.186522
372000,2.001553,2.966416,9.694122,-30.706413,17.429867,21.759041
376000,2.193089,3.021482,9.607931,-28.492676,17.964218,18.812475
380000,2.207454,3.093309,9.488221,-26.278934,16.590172,14.980413
384000,2.231396,3.138798,9.404425,-24.645346,14.040554,11.056749
388000,2.097321,3.117251,9.512163,-22.156796,10.758111,6.949879
392000,2.008735,3.069367,9.593566,-19.179697,6.483303,2.552932
396000,1.915361,2.985569,9.583989,-15.805652,3.170325,-1.859281
400000,1.824382,2.858677,9.469068,-12.767484,0.513837,-5.462335
404000,1.561020,2.604892,9.193734,-10.553743,-0.768606,-8.485235
408000,1.194707,2.521094,8.942344,-9.286569,-1.379293,-10.866915
412000,0.967257,2.370260,8.707711,-9.408706,-2.112118,-12.912717
416000,0.533907,2.231396,8.808268,-9.897255,-2.554866,-14.134090
420000,0.201113,2.037466,8.616732,-9.759851,-2.677003,-14.897449
424000,-0.055067,1.833959,8.662222,-9.698782,-3.043415,-15.401266
428000,-0.328006,1.738190,8.707711,-10.477407,-3.593034,-15.828747
432000,-0.593762,1.501164,8.796297,-11.668247,-4.051049,-15.660809
436000,-0.943315,1.417367,8.913613,-11.881988,-3.364026,-14.866915
440000,-1.065420,1.273715,8.901642,-12.141530,-0.509064,-12.989053
444000,-1.596933,1.201889,9.050082,-13.179698,-3.867843,-12.378366
448000,-1.522712,1.163582,9.050082,-12.385804,-0.524331,-10.057755
452000,-1.505953,1.034295,9.294291,-12.110995,4.055821,-8.225694
456000,-1.517924,1.007959,9.105149,-10.874354,7.765746,-6.302029
460000,-1.431733,1.082179,8.966286,-9.927790,10.773378,-5.111189
464000,-1.314417,1.091756,8.690952,-8.996491,13.490935,-4.637907
468000,-1.280898,1.199495,8.647857,-7.576645,15.170325,-4.561571
472000,-1.335965,1.029507,8.413225,-6.172065,14.788646,-4.989052
476000,-1.369483,0.964863,8.346188,-3.958324,13.811546,-6.302029
480000,-1.570596,0.895431,8.080431,-2.370538,10.544371,-7.920350
484000,-2.308010,1.000776,7.711724,-3.775118,-1.135018,-11.004320
488000,-1.742979,0.677559,8.482656,-0.874354,-1.226621,-11.034854
492000,-1.977611,0.600945,7.896077,4.652363,-2.967079,-9.553938
496000,-2.377442,0.596156,8.295909,3.568394,-7.180820,-10.393633
500000,-2.360683,0.452504,8.295909,6.179081,-6.967079,-9.294396
504000,-2.339135,0.433351,7.917625,7.339386,-5.241889,-7.523403
508000,-2.499547,0.466869,7.479486,5.705799,-3.730438,-5.324930
512000,-2.477999,0.514753,7.249643,4.163814,-3.409827,-2.683709
516000,-2.327164,0.533907,7.278373,0.301218,-4.722805,-1.126457
520000,-2.001553,0.454898,7.508216,-1.683514,-3.104484,0.766673
524000,-1.900996,0.387861,7.536947,-3.744583,-2.157919,2.033848
528000,-1.896208,0.366313,7.589619,-6.798018,-0.493797,3.407894
532000,-2.027889,0.351948,7.548918,-8.828553,1.414600,5.636902
536000,-1.934515,0.349553,7.747637,-11.240767,2.651241,7.407895
540000,-1.683124,0.150835,7.812280,-12.049927,3.048188,8.980413
544000,-1.448492,0.203507,7.951144,-13.271300,2.330631,9.728504
548000,-1.264138,0.220267,8.204929,-14.401073,1.048188,9.438428
552000,-1.180341,0.134075,8.336611,-15.210233,-2.051049,8.720871
556000,-1.156399,0.260968,8.619126,-15.530843,-5.409827,7.713238
560000,-1.096544,0.081403,8.865729,-14.141530,-7.684637,7.484231
564000,-1.132457,0.081403,9.011775,-12.828553,-9.318225,7.087284
568000,-1.082179,0.074220,9.035717,-11.423973,-12.661736,6.659803
572000,-0.881066,0.009577,9.126697,-10.248401,-15.211354,6.278123
576000,-0.711078,0.016759,9.308656,-9.149163,-16.615934,5.285757
580000,-0.531513,-0.052672,9.586384,-7.317102,-15.837309,4.965147
584000,-0.368707,-0.201113,9.564836,-4.752217,-14.417461,4.308658
588000,-0.237026,-0.124498,9.471462,-2.721682,-12.218988,3.453696
592000,-0.126893,-0.172383,9.454702,-2.416339,-8.799141,2.858276
596000,-0.074220,-0.256180,9.512163,-2.217866,-5.241889,2.110184
600000,-0.124498,-0.407014,9.445126,-1.637713,-2.936545,1.514765
604000,-0.220267,-0.457293,9.406818,-1.042293,-2.814408,0.644536
608000,-0.306458,-0.507571,9.301474,-0.110996,-4.875476,-0.698976
612000,-0.306458,-0.617704,9.323022,0.041676,-5.318224,-1.782945
616000,-0.141258,-0.687136,9.545682,-0.645346,-3.425095,-2.118823
620000,-0.378284,-0.864307,9.282320,0.896638,-2.005247,-2.760045
624000,-0.560243,-0.833182,9.253590,-0.187331,-4.112117,-3.462335
628000,-0.730232,-0.864307,9.337387,-1.408705,-6.264789,-3.782945
632000,-0.888249,-0.916979,9.430760,-1.744583,-8.188454,-3.553938
636000,-0.938527,-1.067814,9.519346,-1.652980,-10.142653,-2.973785
640000,-1.029507,-1.079785,9.351752,-1.301835,-12.127385,-2.424167
644000,-0.914585,-1.053449,9.153033,-1.317102,-13.089217,-1.477602
648000,-0.885855,-1.082179,9.294291,-1.103362,-12.157920,-0.179892
652000,-0.948104,-1.051055,8.983045,-1.088094,-12.967080,0.049116
656000,-0.912191,-1.096544,8.836999,-0.828552,-11.806774,1.346826
660000,-1.017536,-0.981623,8.774749,-0.904888,-12.280057,2.430795
664000,-1.003170,-0.907402,8.815451,-2.507942,-14.188454,3.331558
668000,-0.723049,-1.072602,9.059659,-2.294202,-13.974713,4.232322
672000,-0.612916,-1.118092,9.121908,-1.027026,-12.264790,5.010948
676000,-0.490811,-1.120486,8.959103,-0.309469,-11.058682,5.392627
680000,-0.256180,-1.089362,9.069236,0.133279,-9.928912,5.392627
684000,-0.169988,-1.017536,9.346964,1.110379,-7.486163,4.980413
688000,0.071826,-1.134852,9.531317,3.598928,-1.104484,5.865910
692000,-0.545878,-0.885855,9.133880,4.011142,-4.539598,4.384994
696000,-0.474052,-0.744597,9.224859,3.201982,-3.501430,4.323925
700000,-0.519542,-0.864307,8.817844,4.453890,-2.677003,5.056749
704000,-0.569820,-0.701501,8.621520,4.056943,-2.661736,5.591101
708000,-0.404620,-0.605733,8.434772,4.316485,-0.188453,6.614001
712000,-0.208296,-0.598550,8.197746,3.705798,1.338264,7.453696
716000,-0.004788,-0.584185,8.221688,3.140913,2.132157,7.362093
720000,0.162806,-0.538695,8.010999,2.438623,2.864982,6.919345
724000,0.246603,-0.603339,7.994239,1.690531,3.200860,6.247589
728000,0.308852,-0.608127,7.965509,1.217249,3.124524,5.606368
732000,0.172383,-0.648829,8.121132,-0.477408,2.422234,4.354459
736000,0.134075,-0.684742,8.291121,-1.546110,2.116890,3.530032
740000,0.028730,-0.816423,8.379706,-2.095728,1.445134,3.209421
744000,-0.136469,-0.864307,8.588001,-1.958324,-0.280056,2.736139
748000,-0.234632,-0.871489,8.738836,-2.233133,-2.203721,2.736139
752000,-0.335188,-1.000776,8.834604,-2.706415,-3.394560,2.934612
756000,-0.272939,-1.005565,9.074024,-2.385804,-3.593034,3.194154
760000,-0.191536,-1.077391,9.021352,-1.790385,-1.928911,3.820108
764000,-0.165200,-1.154005,9.045294,-1.912522,0.406966,4.247589
768000,-0.304064,-1.115698,9.028535,-2.477408,2.727577,4.690337
772000,-0.359130,-1.132457,9.030929,-2.798018,4.284829,5.270490
776000,-0.404620,-1.101333,9.270349,-2.233133,7.567272,6.140719
780000,-0.490811,-1.029507,9.382876,-1.164430,9.903150,7.530032
784000,-0.306458,-0.986411,9.514558,0.377554,12.147424,8.583467
788000,0.014365,-0.993594,9.598354,2.743967,16.406965,9.102551
792000,0.098162,-0.969652,9.368511,5.263051,20.697042,9.102551
796000,0.119710,-0.818817,9.014170,6.285951,23.002386,8.644535
800000,-0.098162,-0.672771,8.736442,5.904272,24.071089,8.400260
804000,-0.265756,-0.691924,8.583213,4.927173,23.109257,8.018581
808000,-0.557849,-0.646434,8.535329,3.980608,20.834448,7.988047
812000,-0.632069,-0.629675,8.667010,3.721066,17.933683,7.988047
816000,-0.488417,-0.725443,8.724471,3.873737,15.719944,8.110184
820000,-0.411803,-0.711078,8.650250,4.255417,13.414599,7.804841
824000,-0.263362,-0.766145,8.678981,4.377554,14.987119,7.972780
828000,-0.430956,-0.744597,8.559271,3.919539,14.086355,7.942246
832000,-0.418985,-0.696713,8.427590,2.637096,12.422234,7.988047
836000,-0.265756,-0.723049,8.458714,1.308852,12.758111,7.713238
840000,-0.210690,-0.701501,8.497022,0.927172,11.857347,6.995681
844000,-0.241814,-0.656011,8.499416,0.530226,11.017653,6.140719
848000,-0.222661,-0.634463,8.492233,0.133279,9.261928,5.468963
852000,-0.342371,-0.622492,8.568848,0.118012,7.857348,4.827742
856000,-0.287304,-0.725443,8.626308,0.301218,7.048188,4.339192
860000,-0.239420,-0.787692,8.573636,0.362287,7.048188,4.079650
864000,-0.380678,-0.742203,8.513782,-0.538476,7.002387,3.453696
868000,-0.598550,-0.742203,8.717288,-1.515576,6.254295,3.239955
872000,-0.639252,-0.778116,8.882488,-1.851454,5.826814,2.980413
876000,-0.775721,-0.758962,9.088389,-1.652980,6.437501,3.682703
880000,-0.873884,-0.756568,8.999804,-1.271301,6.788646,4.140719
884000,-0.864307,-0.782904,9.009381,-0.843820,7.460402,4.949879
888000,-0.916979,-0.763750,8.937555,-0.553744,8.193226,5.728505
892000,-0.907402,-0.718261,8.932767,-0.095728,8.590172,6.552933
896000,-0.955287,-0.694318,8.918402,0.469157,9.277195,7.438429
900000,-0.881066,-0.639252,8.784326,0.927172,9.216126,7.942246
904000,-0.809240,-0.474052,8.578424,0.881371,9.078722,8.033848
908000,-0.737414,-0.481235,8.633492,0.514959,9.093989,8.003314
912000,-0.450110,-0.428562,8.681376,1.247783,9.903150,7.926979
916000,-0.258574,-0.339977,8.650250,2.438623,12.055821,7.362093
920000,-0.162806,-0.301669,8.588001,3.492058,13.460402,6.476597
924000,-0.119710,-0.411803,8.408437,4.224883,13.445134,5.270490
928000,-0.189142,-0.428562,8.216900,4.530226,13.261928,4.003314
932000,-0.380678,-0.442927,7.975086,3.553127,11.582539,2.781940
936000,-0.541090,-0.442927,7.984663,2.514959,8.971851,1.682703
940000,-0.687136,-0.445322,7.991845,1.614195,5.994753,1.224688
944000,-0.897826,-0.442927,8.157045,1.201982,3.155058,1.087284
948000,-0.948104,-0.505177,8.216900,0.362287,1.322997,1.377360
952000,-0.703895,-0.421380,8.209718,-0.294202,1.872615,1.682703
956000,-0.682347,-0.387861,8.355764,-1.546110,3.368799,2.293390
960000,-0.756568,-0.263362,8.365341,-2.416339,5.002387,2.736139
964000,-0.660800,-0.201113,8.245630,-3.622446,5.933684,3.270490
968000,-0.615310,-0.277727,8.070854,-4.874354,6.574905,4.003314
972000,-0.538695,-0.296881,8.006210,-5.668247,6.987119,3.850643
976000,-0.454898,-0.256180,7.999028,-7.103362,6.177959,3.255223
980000,-0.608127,-0.304064,8.027759,-8.278934,4.971852,2.781940
984000,-0.653617,-0.325611,8.034941,-8.874354,3.368799,2.232322
988000,-0.675165,-0.435745,8.180987,-8.416339,1.689409,1.850642
992000,-0.787692,-0.612916,8.008605,-8.324736,-5.898377,0.308658
996000,-0.703895,-0.751779,8.714894,-9.164431,-10.432729,-2.134090
1000000,-0.514753,-0.957681,8.851364,-4.080462,-9.089217,-2.164625
1004000,-0.952892,-0.847547,9.138668,-3.698782,-15.196087,-4.134090
1008000,-0.943315,-0.986411,9.390059,-1.988858,-20.005247,-5.553937
1012000,-1.173159,-0.974440,9.560047,-1.118629,-23.654102,-6.240961
1016000,-1.312023,-0.986411,9.583989,-0.110996,-24.646469,-5.782945
1020000,-1.364695,-0.888249,9.588778,-0.355270,-24.524332,-4.225693
1024000,-1.204283,-0.931344,9.636662,-0.141530,-21.806774,-1.996686
1028000,-1.017536,-0.993594,9.483433,0.835569,-16.310591,0.430795
1032000,-0.914585,-0.962469,9.234436,1.140913,-11.272423,2.217055
1036000,-0.624887,-0.746991,9.148245,-0.278934,-6.646469,3.667437
1040000,-0.478840,-0.667982,8.978256,-1.775118,-3.486163,4.354459
1044000,-0.474052,-0.648829,9.050082,-1.591912,-1.196087,4.446063
1048000,-0.531513,-0.536301,9.102755,-0.538476,0.391699,4.629269
1052000,-0.586579,-0.421380,8.925584,-0.095728,0.452768,5.056749
1056000,-0.610521,-0.248997,8.911219,-0.095728,-0.096850,5.514765
1060000,-0.445322,-0.210690,8.899248,-0.065194,-0.112117,6.064383
1064000,-0.220267,-0.124498,8.887277,0.484424,0.666508,6.491864
1068000,-0.062249,-0.076614,8.671799,0.759233,1.093989,6.094917
1072000,0.146046,0.014365,8.547300,1.003508,0.284829,5.194154
1076000,0.234632,0.141258,8.317456,0.850837,-1.043415,3.606368
1080000,0.296881,0.294487,7.960721,0.667630,-2.783873,2.247589
1084000,0.335188,0.438139,7.855376,0.026409,-4.799140,0.766673
1088000,0.351948,0.347159,7.917625,-0.904888,-6.585400,-0.714243
1092000,0.387861,0.339977,7.934384,-1.439240,-7.974713,-2.378365
1096000,0.335188,0.313640,7.999028,-2.294202,-8.860209,-4.042487
1100000,0.330400,0.198719,8.082825,-2.706415,-10.066317,-5.584472
1104000,0.308852,0.153229,8.221688,-2.752217,-10.768606,-7.370731
1108000,0.205901,0.177171,8.271967,-2.507942,-11.684637,-8.408899
1112000,0.083797,0.138864,8.238448,-2.599545,-12.478530,-9.447068
1116000,-0.040701,-0.014365,8.224083,-2.630080,-13.409828,-10.225694
1120000,-0.122104,-0.083797,8.226477,-2.843820,-13.760973,-10.775312
1124000,-0.179565,-0.146046,8.255207,-3.057560,-13.699904,-10.989053
1128000,-0.366313,-0.258574,8.291121,-3.118629,-14.203721,-11.294396
1132000,-0.356736,-0.335188,8.432379,-3.423972,-14.249522,-10.989053
1136000,-0.457293,-0.500388,8.482656,-3.179698,-13.867843,-10.714244
1140000,-0.457293,-0.555455,8.616732,-2.736950,-13.608301,-10.179893
1144000,-0.438139,-0.591368,8.652645,-3.362904,-12.677003,-9.828747
1148000,-0.486023,-0.651223,8.968679,-4.126263,-11.409828,-9.340198
1152000,-0.533907,-0.658405,9.093178,-4.278934,-10.341125,-8.821114
1156000,-0.531513,-0.723049,9.119514,-3.943056,-8.921278,-7.920350
1160000,-0.423774,-0.715866,9.014170,-3.149163,-6.967079,-7.248594
1164000,-0.521936,-0.687136,8.896853,-2.767484,-5.211354,-6.607373
1168000,-0.505177,-0.656011,8.880095,-3.118629,-4.173186,-5.981419
1172000,-0.464475,-0.610521,8.901642,-3.225499,-3.028148,-5.645541
1176000,-0.457293,-0.624887,8.872911,-2.691148,-2.280056,-5.508136
1180000,-0.244209,-0.711078,9.033323,-1.362904,-1.989980,-5.859281
1184000,-0.251391,-0.620098,8.829816,-0.706415,-1.379293,-6.454701
1188000,-0.296881,-0.617704,8.731653,-0.691148,-1.119751,-7.401266
1192000,-0.440533,-0.605733,8.650250,-0.584278,-1.119751,-7.355464
1196000,-0.529119,-0.603339,8.652645,-0.080461,-1.516698,-7.828747
1200000,-0.553061,-0.579397,8.686164,0.545493,-1.867843,-7.721877
1204000,-0.603339,-0.548272,8.599973,0.972974,-2.447995,-7.966151
1208000,-0.617704,-0.493206,8.449138,1.354653,-2.585400,-7.676075
1212000,-0.763750,-0.423774,8.410830,1.201982,-2.921278,-7.630273
1216000,-0.718261,-0.368707,8.291121,0.805035,-3.058682,-7.370731
1220000,-0.600945,-0.457293,8.259995,0.576027,-2.615934,-6.515769
1224000,-0.509965,-0.481235,8.078036,0.591295,-1.073950,-5.874548
1228000,-0.476446,-0.428562,7.965509,-0.538476,0.132157,-5.615006
1232000,-0.469264,-0.442927,7.848193,-2.263667,0.956585,-5.248594
1236000,-0.363919,-0.512359,7.936779,-3.943056,1.399333,-4.790579
1240000,-0.311246,-0.524330,8.092402,-4.294202,1.994753,-4.744777
1244000,-0.308852,-0.548272,8.020576,-4.767485,1.597806,-5.202793
1248000,-0.447716,-0.545878,8.037335,-5.408706,0.849715,-5.431800
1252000,-0.569820,-0.543484,8.216900,-6.248401,-0.295324,-5.141724
1256000,-0.596156,-0.577003,8.169016,-7.042294,-1.211354,-5.141724
1260000,-0.483629,-0.572214,8.477868,-7.668247,-2.646469,-4.805846
1264000,-0.584185,-0.536301,8.724471,-8.049927,-4.295324,-4.790579
1268000,-0.610521,-0.452504,8.793902,-7.988858,-5.379293,-4.332564
1272000,-0.521936,-0.466869,8.884883,-7.820919,-5.791507,-3.431800
1276000,-0.399832,-0.438139,9.040505,-7.759851,-5.119751,-2.989052
1280000,-0.208296,-0.378284,8.951921,-7.836186,-2.860209,-2.317297
1284000,-0.102951,-0.335188,8.966286,-7.775118,-0.157919,-1.966151
1288000,-0.160412,-0.251391,8.839393,-8.019393,1.796279,-1.996686
1292000,-0.155623,-0.129287,8.738836,-8.355270,2.498570,-2.103556
1296000,-0.265756,-0.136469,8.803479,-8.614813,2.864982,-1.905083
1300000,-0.292093,-0.095768,8.872911,-9.027026,2.452768,-2.149358
1304000,-0.260968,-0.122104,8.832211,-8.859087,1.536737,-2.118823
1308000,-0.248997,-0.191536,8.856153,-7.973591,0.498570,-2.622640
1312000,-0.239420,-0.205901,8.796297,-7.210233,-0.661736,-3.080655
1316000,-0.134075,-0.251391,8.791509,-6.507942,-1.531965,-3.431800
1320000,-0.181959,-0.330400,8.762778,-4.950690,-3.196087,-3.798213
1324000,-0.258574,-0.359130,8.583213,-4.080462,-5.455629,-4.576838
1328000,-0.062249,-0.493206,8.674192,-2.187331,-0.951812,-3.309663
1332000,-0.691924,-0.304064,8.310274,-3.515576,-8.264790,-5.233327
1336000,-0.488417,-0.232238,8.583213,-5.668247,-9.089217,-6.195159
1340000,-0.093374,-0.397437,8.690952,-4.431606,-7.684637,-5.004319
1344000,-0.256180,-0.361524,8.413225,-3.683514,-7.043415,-5.172258
1348000,-0.026336,-0.328006,8.281544,-3.561377,-3.394560,-4.500503
1352000,-0.210690,-0.337582,8.259995,-5.500309,-3.364026,-4.989052
1356000,-0.169988,-0.277727,8.307879,-7.240767,-2.173186,-5.141724
1360000,-0.284910,-0.359130,8.269572,-8.706415,-2.417461,-5.080655
1364000,-0.292093,-0.347159,8.465898,-9.240767,-2.463263,-5.508136
1368000,-0.428562,-0.335188,8.540117,-8.385805,-1.501431,-5.080655
1372000,-0.375890,-0.390255,8.525752,-7.286569,0.162692,-4.317297
1376000,-0.433351,-0.488417,8.597578,-6.645347,1.948951,-3.324930
1380000,-0.380678,-0.486023,8.415619,-6.309469,3.994753,-2.866915
1384000,-0.349553,-0.493206,8.580819,-6.675881,5.078722,-2.760045
1388000,-0.351948,-0.488417,8.604761,-6.874354,4.697043,-3.080655
1392000,-0.385466,-0.438139,8.628703,-6.569011,3.933684,-3.187526
1396000,-0.495600,-0.378284,8.664616,-6.507942,2.345898,-3.401266
1400000,-0.555455,-0.409408,8.695741,-6.446874,1.704676,-3.080655
1404000,-0.512359,-0.395043,8.734048,-6.294202,1.613073,-2.439434
1408000,-0.478840,-0.397437,8.858546,-6.049927,2.590173,-2.042487
1412000,-0.572214,-0.304064,8.846576,-6.004126,4.437501,-0.943251
1416000,-0.524330,-0.198719,8.825027,-6.675881,7.292463,0.125452
1420000,-0.509965,0.033519,8.492233,-8.950690,12.498569,1.865910
1424000,-0.797269,0.059855,8.741230,-10.431606,11.231394,2.843009
1428000,-0.667982,-0.114922,8.568848,-9.790385,9.994752,4.446063
1432000,-0.328006,-0.308852,8.109161,-7.210233,11.139791,5.621635
1436000,0.112527,-0.277727,7.900866,-6.721683,10.452767,4.675070
1440000,0.691924,-0.316035,7.757214,-6.706415,11.170325,2.064383
1444000,0.639252,-0.359130,7.967903,-6.141530,11.811546,-1.218060
1448000,0.359130,-0.495600,7.898471,-4.645347,9.964218,-4.714243
1452000,-0.028730,-0.565032,7.819463,-3.714049,6.254295,-7.156991
1456000,-0.201113,-0.617704,7.922413,-3.408705,2.666508,-8.943251
1460000,-0.356736,-0.828394,8.149862,-3.103362,0.300096,-10.164625
1464000,-0.545878,-1.005565,8.264784,-3.851454,-2.127385,-11.218060
1468000,-0.658405,-1.079785,8.367735,-5.317102,-4.921278,-12.347831
1472000,-0.955287,-1.197101,8.592790,-6.599545,-7.486163,-12.546305
1476000,-1.170765,-1.328782,8.774749,-6.874354,-10.844942,-12.760045
1480000,-1.539472,-1.326388,9.186552,-7.378171,-15.577766,-11.996686
1484000,-1.711854,-1.424550,9.368511,-6.630079,-17.501431,-9.981419
1488000,-1.764527,-1.403002,9.698911,-6.324736,-17.928911,-7.279129
1492000,-1.747767,-1.403002,9.818622,-6.080462,-16.432728,-4.073022
1496000,-1.618480,-1.352724,9.986216,-6.477407,-13.104485,-0.546304
1500000,-1.539472,-1.268927,10.177752,-6.446874,-8.997614,2.904078
1504000,-1.513135,-1.065420,10.144233,-5.775118,-4.341125,7.072017
1508000,-1.187524,-0.854730,10.065224,-5.057561,1.093989,10.614001
1512000,-0.967257,-0.548272,9.813833,-4.920156,7.063455,14.201787
1516000,-0.562637,-0.361524,9.459491,-3.988858,14.055821,17.331558
1520000,-0.244209,-0.272939,9.210494,-4.660614,19.078722,17.988047
1524000,0.265756,-0.318429,8.391677,-2.935423,25.857347,19.224689
1528000,0.677559,-0.330400,7.733272,-3.729316,26.086355,17.392628
1532000,0.950498,-0.318429,7.450756,-3.042293,27.002386,14.003314
1536000,0.888249,-0.311246,7.182605,-1.759850,21.994753,9.362092
1540000,0.735020,-0.383072,7.010222,-1.805652,13.933683,4.278123
1544000,0.912191,-0.636858,7.587225,-4.324736,3.368799,-1.950884
1548000,1.235408,-0.969652,7.752425,-2.370538,-4.020514,-9.050121
1552000,0.852336,-1.213860,7.864953,-0.920156,-8.173186,-15.508137
1556000,0.428562,-1.532289,7.752425,-0.828552,-14.310591,-20.088287
1560000,-0.071826,-1.781286,8.042124,-2.034660,-23.730438,-24.469967
1564000,-0.344765,-2.092532,8.592790,-3.423972,-31.486164,-27.630274
1568000,-0.720655,-2.406173,9.136273,-3.973591,-36.341125,-29.706610
1572000,-1.192312,-2.643199,9.375694,-4.233133,-40.280056,-30.317295
1576000,-1.532289,-2.731784,9.715671,-3.820919,-42.280056,-29.416533
1580000,-2.025495,-2.798822,10.163386,-3.652980,-42.493797,-26.760044
1584000,-2.185906,-2.798822,10.479421,-3.759850,-40.066315,-22.378365
1588000,-2.190695,-2.791639,10.979809,-4.355270,-34.860210,-16.821114
1592000,-1.951274,-2.698265,11.286267,-4.110995,-25.822042,-10.790579
1596000,-1.838747,-2.480393,11.283873,-4.172065,-15.593034,-5.172258
1600000,-1.616086,-2.324770,11.125855,-3.744583,-3.867843,0.934612
1604000,-1.364695,-1.932121,10.910378,-2.782751,6.468035,5.606368
1608000,-1.194707,-1.821988,10.714052,-1.683514,13.719943,9.331558
1612000,-1.048660,-1.625663,10.335769,0.316485,19.842081,12.476596
1616000,-0.830788,-1.398214,9.883265,2.347020,23.704676,15.041482
1620000,-0.545878,-1.165976,9.351752,3.461524,26.559637,16.155987
1624000,-0.404620,-0.969652,9.026140,4.148547,27.857347,16.614002
1628000,-0.172383,-0.732626,8.583213,4.240149,27.475668,16.201788
1632000,-0.189142,-0.505177,7.946355,4.530226,26.071089,16.369726
1636000,-0.129287,-0.359130,7.812280,2.621829,19.826813,14.629268
1640000,0.395043,-0.758962,7.821857,4.713432,14.803913,12.858275
1644000,0.670376,-0.830788,7.627927,7.675264,10.483302,9.102551
1648000,0.854730,-0.888249,7.503428,8.743966,3.490936,3.652169
1652000,0.823605,-0.902614,7.225701,9.110378,-4.906011,-1.660808
1656000,0.507571,-0.981623,7.292738,8.682898,-12.615934,-6.469968
1660000,0.251391,-1.103727,7.352593,7.629462,-19.379293,-9.737144
1664000,-0.019154,-1.233014,7.491457,5.751600,-25.440363,-12.683709
1668000,-0.208296,-1.235408,7.599196,3.950073,-29.791508,-14.210426
1672000,-0.294487,-1.395820,7.735666,2.362287,-30.493797,-14.683709
1676000,-0.488417,-1.527501,7.864953,0.881371,-28.951813,-13.889816
1680000,-0.543484,-1.539472,7.979874,-0.691148,-24.371660,-11.691342
1684000,-0.730232,-1.575385,8.331821,-2.660614,-19.272423,-9.126457
1688000,-0.699107,-1.527501,8.410830,-4.340003,-13.608301,-6.408899
1692000,-0.687136,-1.484405,8.508993,-5.790385,-8.142652,-3.477602
1696000,-0.699107,-1.479617,8.918402,-6.599545,-3.776240,-0.515770
1700000,-0.624887,-1.453280,9.042900,-6.446874,1.674142,2.507131
1704000,-0.462081,-1.438915,9.150639,-5.591911,8.040554,5.117818
1708000,-0.332794,-1.462857,8.932767,-4.630079,13.002386,6.919345
1712000,-0.019154,-1.517924,8.714894,-3.622446,17.490936,7.835375
1716000,0.050278,-1.551443,8.535329,-3.225499,20.315363,7.743772
1720000,0.057461,-1.695095,8.451532,-2.263667,20.895515,6.675070
1724000,-0.069432,-1.709460,8.473080,-1.347636,18.864981,4.720871
1728000,-0.074220,-1.675941,8.386889,-1.149163,12.971851,2.186520
1732000,0.038307,-1.757344,8.556877,-1.042293,8.956584,-0.683709
1736000,0.062249,-1.833959,8.904037,0.392821,8.391699,-2.760045
1740000,-0.110133,-1.910573,8.834604,3.522592,5.078722,-4.515770
1744000,-0.301669,-1.884237,8.918402,4.408089,-0.173186,-6.576838
1748000,-0.289698,-1.891419,8.889671,4.163814,-3.898377,-8.424167
1752000,-0.265756,-1.922544,8.882488,3.950073,-5.058682,-8.958518
1756000,-0.325611,-1.929727,8.961497,4.072211,-4.478529,-9.248594
1760000,-0.545878,-1.843535,8.784326,3.507325,-4.051049,-8.805846
1764000,-0.641646,-1.800440,8.688558,2.713432,-2.997614,-7.813479
1768000,-0.653617,-1.800440,8.676587,2.148547,-0.707537,-6.225693
1772000,-0.598550,-1.850718,8.568848,1.721066,2.742844,-4.469968
1776000,-0.375890,-1.903390,8.415619,0.392821,7.032921,-2.943251
1780000,-0.423774,-1.793257,8.331821,-1.836186,10.697042,-2.393632
1784000,-0.469264,-1.786075,8.415619,-3.530843,13.063455,-1.950884
1788000,-0.488417,-1.845930,8.427590,-4.370538,13.628340,-1.645541
1792000,-0.598550,-1.831564,8.597578,-4.706415,12.834447,-1.645541
1796000,-0.526724,-1.977611,8.662222,-4.523210,10.620707,-1.462335
1800000,-0.445322,-1.968034,8.530540,-4.309469,9.093989,-1.752411
1804000,-0.488417,-2.030283,8.554482,-4.645347,6.880249,-2.485235
1808000,-0.378284,-2.020706,8.688558,-4.798018,4.239028,-3.844014
1812000,-0.488417,-2.173935,8.925584,-4.095729,3.170325,-4.347831
1816000,-0.629675,-2.161964,9.136273,-2.736950,1.811547,-4.607373
1820000,-0.818817,-2.147599,9.222465,-2.569010,-1.028148,-4.760045
1824000,-0.730232,-2.188300,9.160215,-2.202598,-1.272423,-4.637907
1828000,-0.794875,-2.142811,9.083601,-1.958324,0.055821,-3.599739
1832000,-0.806846,-2.073379,9.090784,-1.103362,1.918417,-2.454701
1836000,-0.811634,-1.960851,9.095572,-0.156797,3.414600,-1.004319
1840000,-0.730232,-1.869871,9.030929,0.637096,3.781013,0.049116
1844000,-0.646434,-1.824382,8.896853,1.721066,4.773379,0.934612
1848000,-0.531513,-1.707066,8.686164,2.545493,6.345898,1.591100
1852000,-0.536301,-1.723825,8.461109,2.743967,7.414600,2.155986
1856000,-0.560243,-1.695095,8.137892,2.774501,7.750478,2.568200
1860000,-0.260968,-1.644817,7.960721,1.904272,8.452767,2.812474
1864000,-0.189142,-1.549049,7.773973,0.728699,9.002386,2.400261
1868000,-0.148441,-1.491588,7.852982,-0.187331,8.330630,1.957513
1872000,-0.105345,-1.491588,7.730877,-0.935423,7.261929,1.239955
1876000,-0.155623,-1.575385,7.754819,-1.607178,5.994753,0.552933
1880000,-0.177171,-1.537078,7.730877,-2.721682,4.177959,-0.210426
1884000,-0.220267,-1.582567,7.831434,-4.217866,2.834447,-1.187526
1888000,-0.363919,-1.606509,8.010999,-5.668247,1.399333,-1.630274
1892000,-0.452504,-1.692701,8.176199,-6.859087,0.162692,-1.660808
1896000,-0.677559,-1.632846,8.295909,-7.805653,-0.554866,-1.691342
1900000,-0.660800,-1.687912,8.362947,-8.370538,-1.150285,-1.019587
1904000,-0.646434,-1.556231,8.504205,-8.721683,-1.593034,-0.454701
1908000,-0.675165,-1.549049,8.643068,-8.721683,-1.791507,0.094917
1912000,-0.548272,-1.544260,8.791509,-8.370538,-1.974713,0.675070
1916000,-0.452504,-1.549049,8.892065,-7.851454,-1.959446,0.797207
1920000,-0.304064,-1.565808,9.078813,-7.546110,-1.791507,0.797207
1924000,-0.304064,-1.604115,9.045294,-7.042294,-1.196087,0.827742
1928000,-0.371101,-1.709460,8.983045,-6.355270,-0.829675,0.888810
1932000,-0.323217,-1.692701,9.112331,-5.317102,-0.722805,1.010948
1936000,-0.244209,-1.637634,9.028535,-4.141530,-0.081583,0.843009
1940000,-0.071826,-1.613692,9.078813,-2.889621,0.422234,0.186520
1944000,-0.088585,-1.692701,8.930372,-1.347636,0.284829,-0.256228
1948000,-0.117316,-1.762132,8.947132,1.736333,3.307730,0.155986
1952000,-0.615310,-1.584962,8.990228,1.889004,0.269562,-0.866915
1956000,-0.325611,-1.556231,8.858546,2.774501,0.513837,-0.469968
1960000,-0.268151,-1.604115,8.726865,1.034043,-0.249522,-0.515770
1964000,-0.421380,-1.561020,8.805874,1.064577,2.239028,-0.607373
1968000,-0.172383,-1.575385,8.817844,2.133279,5.521471,0.186520
1972000,-0.167594,-1.592144,8.750807,0.835569,9.368798,0.659803
1976000,-0.392649,-1.575385,8.762778,1.629462,9.002386,-0.027220
1980000,-0.289698,-1.723825,8.710106,3.675264,9.979486,-0.011953
1984000,-0.569820,-1.422156,8.362947,3.782134,10.239027,0.354459
1988000,-0.615310,-1.460463,8.243237,0.957707,7.277195,-0.164625
1992000,-0.672771,-1.508347,8.336611,-0.660614,4.422234,-0.118823
1996000,-0.584185,-1.474828,8.585608,-1.210232,3.200860,0.186520
