time_us,ax,ay,az,gx,gy,gz
0,0.011971,-1.968034,8.599973,-1.042293,-2.295324,-1.492869
4000,0.043096,-2.090138,8.774749,-0.675881,-2.264789,-1.615006
8000,0.007183,-2.075773,8.746018,-0.034660,-1.913644,-1.935617
12000,0.076614,-2.059013,8.664616,0.728699,-1.073950,-1.905083
16000,-0.062249,-2.087744,8.549694,0.637096,0.330631,-1.676075
20000,-0.146046,-2.094927,8.518570,0.118012,1.658875,-1.324930
24000,-0.225055,-2.094927,8.504205,0.056943,2.803913,-0.836380
28000,-0.205901,-2.205060,8.494628,0.056943,4.086356,0.003314
32000,-0.256180,-2.078167,8.398860,-0.065194,5.414600,0.293391
36000,-0.146046,-2.023100,8.396465,-0.553744,5.933684,0.827742
40000,-0.189142,-2.102109,8.312668,-1.393438,6.483303,1.072016
44000,-0.229843,-2.085350,8.401254,-1.454507,6.742845,1.346826
48000,-0.299275,-2.023100,8.446744,-1.256034,6.376432,1.438429
52000,-0.239420,-1.994370,8.477868,-1.469774,5.277195,1.392627
56000,-0.289698,-2.082955,8.657434,-1.225499,4.010020,1.713238
60000,-0.272939,-2.015918,8.717288,-0.782751,3.613073,1.988047
64000,-0.217872,-1.980005,8.822633,-0.904888,3.460402,1.759039
68000,-0.112527,-1.960851,8.619126,-0.675881,4.162692,1.728505
72000,-0.114922,-1.886631,8.638280,-0.843820,4.666509,1.438429
76000,0.014365,-1.824382,8.482656,-1.820919,4.849715,0.537665
80000,-0.114922,-1.874660,8.568848,-1.652980,4.345898,0.079650
84000,-0.248997,-1.891419,8.552089,0.072211,2.284829,-0.729510
88000,-0.244209,-1.862689,8.537724,0.362287,-0.600667,-1.370732
92000,-0.244209,-1.903390,8.470686,0.041676,-2.280056,-2.179892
96000,-0.378284,-1.860295,8.480263,0.056943,-2.463263,-2.408900
100000,-0.414197,-1.812411,8.276755,-0.004125,-2.936545,-2.317297
104000,-0.505177,-1.853112,8.252813,-0.049927,-4.478529,-2.408900
108000,-0.442927,-1.912967,8.166622,-0.599545,-5.516697,-2.271495
112000,-0.263362,-1.975216,8.228871,-1.164430,-5.150285,-2.424167
116000,-0.196325,-1.953669,8.327033,-1.332370,-3.928911,-2.729510
120000,-0.275333,-2.027889,8.250419,-1.423972,-2.875476,-2.973785
124000,-0.368707,-2.042254,8.025364,-1.805652,-2.142652,-3.095922
128000,-0.476446,-2.111686,8.037335,-2.630080,-1.944179,-2.836380
132000,-0.447716,-2.092532,8.099585,-3.301835,-1.959446,-2.866915
136000,-0.622492,-2.188300,8.413225,-3.637713,-1.837308,-2.790579
140000,-0.706290,-2.214637,8.477868,-3.729316,-1.898377,-2.485235
144000,-0.593762,-2.255338,8.353370,-3.775118,-1.226621,-1.782945
148000,-0.584185,-2.260126,8.358158,-3.622446,0.101623,-1.660808
152000,-0.584185,-2.315193,8.312668,-4.034659,1.139791,-1.340197
156000,-0.663194,-2.286463,8.204929,-4.462141,2.055821,-0.729510
160000,-0.727837,-2.372654,8.123527,-5.088095,2.361165,-0.469968
164000,-0.665588,-2.418144,8.094796,-5.378171,2.513837,0.232322
168000,-0.766145,-2.406173,8.013393,-6.065194,2.345898,0.598734
172000,-0.679953,-2.396596,8.188169,-6.202599,2.025287,1.148352
176000,-0.562637,-2.442086,8.133103,-6.630079,1.231394,1.239955
180000,-0.536301,-2.475605,7.922413,-6.217866,-1.211354,1.178887
184000,-0.574608,-2.437297,8.245630,-8.981225,-5.226621,-0.698976
188000,-0.316035,-2.489970,8.195353,-6.965958,-2.218988,0.537665
192000,-0.323217,-2.650381,8.276755,-8.294202,-2.417461,-0.011953
196000,-0.359130,-2.571373,8.465898,-9.973591,-3.287690,-0.256228
200000,-0.263362,-2.743755,8.523358,-10.599545,-3.898377,-0.668442
204000,-0.165200,-2.779668,8.772355,-10.614813,-1.043415,0.308658
208000,-0.399832,-2.808398,8.978256,-10.767485,-0.386927,0.125452
212000,-0.191536,-2.928109,9.277532,-9.469774,0.819180,0.537665
216000,-0.253785,-3.066972,9.244013,-8.401072,-0.371659,0.125452
220000,-0.100556,-3.052607,9.267955,-7.133897,1.750478,0.354459
224000,-0.275333,-3.014300,9.229648,-6.843820,1.582539,-0.240961
228000,-0.339977,-3.043030,9.284714,-6.416339,2.223760,0.110184
232000,-0.387861,-3.055001,9.222465,-5.927790,2.437501,0.094917
236000,-0.481235,-3.066972,9.258378,-5.408706,2.177959,0.751406
240000,-0.407014,-3.057395,9.332599,-5.011759,1.933684,1.331558
244000,-0.445322,-3.107674,9.332599,-3.927789,1.628341,1.988047
248000,-0.210690,-3.136404,9.294291,-2.996492,2.422234,2.003314
252000,-0.184354,-3.162740,9.196129,-2.721682,2.651241,1.850642
256000,-0.146046,-3.287239,9.217676,-2.248400,3.292463,2.064383
260000,-0.055067,-3.292027,9.193734,-1.958324,3.429867,1.331558
264000,0.011971,-3.409343,9.105149,-2.156797,3.460402,0.415528
268000,-0.081403,-3.450045,9.306262,-2.507942,3.735211,0.033849
272000,-0.122104,-3.624821,9.349358,-1.836186,4.254295,-0.805846
276000,-0.215478,-3.773262,9.375694,-0.859087,4.544371,-1.126457
280000,-0.347159,-3.713407,9.593566,-0.446873,4.010020,-1.065388
284000,-0.371101,-3.909731,9.677363,-1.042293,3.964219,-1.324930
288000,-0.380678,-3.907337,9.732430,-1.668247,4.315363,-1.630274
292000,-0.493206,-4.089296,9.828198,-1.866720,4.437501,-1.569205
296000,-0.495600,-4.041412,10.230424,-1.790385,4.834447,-1.263861
300000,-0.524330,-4.106056,10.328587,-1.500308,6.864982,-0.668442
304000,-0.672771,-4.065354,10.448297,-1.378171,9.063455,0.217055
308000,-0.754174,-4.129998,10.460267,-1.515576,11.048187,1.560566
312000,-0.849942,-4.027047,10.366894,-1.912522,13.521470,3.255223
316000,-0.785298,-3.983952,10.319010,-2.798018,16.574905,4.812475
320000,-0.694318,-3.849876,10.290278,-3.881988,19.338264,5.759039
324000,-0.701501,-3.921702,10.240001,-4.401072,22.819180,7.575834
328000,-0.876278,-3.830723,10.249578,-3.607178,23.964218,9.285756
332000,-0.895431,-3.778050,9.955091,-3.393438,23.231394,10.430795
336000,-0.742203,-3.641581,9.830592,-3.515576,23.353531,11.636902
340000,-0.895431,-3.643975,9.737218,-3.805652,23.246660,13.484230
344000,-0.727837,-3.658340,9.744401,-3.057560,20.605440,14.858275
348000,-0.687136,-3.660734,9.835381,-1.225499,18.498569,16.018581
352000,-0.553061,-3.703830,9.742006,0.927172,17.216125,17.728506
356000,-0.416591,-3.555390,9.691729,1.721066,14.345898,17.575834
360000,-0.158017,-3.536236,9.739613,3.629463,16.300097,18.736139
364000,-0.047884,-3.311181,9.612720,4.377554,14.422234,18.308659
368000,-0.074220,-3.272874,9.548077,5.232516,13.567271,18.781940
372000,-0.095768,-3.186682,9.459491,6.728699,12.269562,18.781940
376000,0.193930,-3.083732,9.385271,7.950073,12.269562,18.949881
380000,0.521936,-3.035848,9.303867,7.644730,12.651241,18.354460
384000,0.900220,-2.935291,9.093178,7.980608,14.803913,16.384995
388000,1.192312,-2.875436,9.076419,7.553127,18.452768,13.926978
392000,1.170765,-2.741361,8.997410,6.850837,21.384066,11.194154
396000,1.201889,-2.638410,8.875306,6.194348,23.521469,8.476596
400000,1.053449,-2.669535,8.789114,5.400455,25.155058,5.484231
404000,0.828394,-2.741361,8.841787,4.789768,25.017653,3.056749
408000,0.447716,-2.736573,8.920795,3.430989,21.918417,0.507131
412000,0.153229,-2.908955,9.299079,3.232516,18.284828,-0.805846
416000,0.181959,-3.014300,9.543288,4.255417,17.582539,-2.057755
420000,-0.064643,-2.987964,9.564836,4.102745,15.994753,-2.302029
424000,-0.502782,-3.066972,9.598354,3.400455,11.811546,-3.401266
428000,-0.208296,-3.313575,9.777920,6.285951,18.345898,-0.546304
432000,-0.648829,-3.332729,9.775525,5.705799,16.055820,-1.263861
436000,-0.701501,-3.275268,9.639056,4.347020,17.063456,-0.439434
440000,-1.012747,-3.344700,9.452309,2.896638,14.681775,-0.134090
444000,-0.869095,-3.406949,9.634268,1.736333,17.017653,1.331558
448000,-0.967257,-3.337517,9.840169,0.270684,18.605440,2.491864
452000,-1.304840,-3.428497,9.768343,-0.004125,19.216125,4.980413
456000,-1.199495,-3.337517,9.821015,-0.370538,17.979485,6.308658
460000,-0.936133,-3.301604,9.718064,-1.454507,20.834448,8.155986
464000,-0.919373,-3.186682,9.797073,-3.210232,22.422234,8.949879
468000,-1.019930,-3.203442,9.490616,-4.553743,22.529104,9.530031
472000,-0.794875,-3.090914,9.502586,-6.370538,24.666508,10.583467
476000,-0.763750,-2.901772,9.380483,-8.981225,22.712309,9.774306
480000,-0.517148,-2.913743,9.387665,-10.950690,23.674141,9.682703
484000,-0.804452,-2.772485,9.279925,-12.904889,21.689409,9.072016
488000,-0.524330,-2.875436,9.358934,-12.828553,21.307730,8.736138
492000,-0.385466,-2.851494,9.303867,-14.370538,22.101622,8.232322
496000,-0.392649,-2.834735,9.504981,-15.576644,24.055820,8.171253
500000,-0.150835,-2.913743,9.931149,-14.370538,27.552004,7.759039
504000,-0.227449,-3.169923,10.180145,-9.729317,30.773378,7.621635
508000,-0.196325,-3.418920,10.350134,-3.652980,35.002384,8.384994
512000,-0.402226,-3.588908,10.101137,1.919539,31.338264,6.262856
516000,-0.481235,-3.627216,9.801862,6.301218,26.223761,4.125452
520000,-0.610521,-3.588908,9.490616,8.774501,19.109257,1.056749
524000,-0.770933,-3.603274,9.442732,10.377554,12.590172,-1.767678
528000,-0.787692,-3.787627,9.605537,12.957706,8.208493,-4.561571
532000,-0.778116,-3.837905,9.500193,16.102745,5.597806,-6.286762
536000,-1.254562,-3.881001,9.564836,17.965342,3.170325,-7.248594
540000,-1.721431,-3.801992,9.545682,18.957706,-6.432728,-8.317297
544000,-1.383849,-3.713407,9.957485,20.163815,-7.531965,-8.576838
548000,-1.462857,-3.617639,10.433931,19.690531,-7.302957,-8.256227
552000,-1.733402,-3.581726,11.063606,20.652365,-1.913644,-5.813479
556000,-2.157176,-3.445256,11.264719,22.698166,3.796279,-2.179892
560000,-2.257732,-3.301604,11.307815,24.911905,11.261928,3.087284
564000,-2.432509,-3.172317,11.010934,27.034044,15.979485,8.140718
568000,-2.609680,-3.055001,10.558430,26.118013,19.887882,12.980413
572000,-2.456451,-2.853889,10.323798,26.194349,28.559637,18.614002
576000,-2.564190,-2.624045,9.959879,24.835569,34.361164,23.484230
580000,-2.494758,-2.449268,9.406818,25.049311,38.025288,28.598734
584000,-2.296039,-2.317587,8.937555,24.438623,41.521469,33.148354
588000,-1.697489,-2.142811,8.781932,24.255417,46.559639,35.667439
592000,-1.637634,-1.965640,8.394072,23.034044,48.315365,37.850643
596000,-1.572991,-1.877054,8.078036,23.705799,48.376431,39.423161
600000,-1.185130,-1.539472,8.018182,24.179081,45.781013,39.255222
604000,-0.679953,-1.158794,7.855376,23.858471,42.956585,37.759041
608000,-0.675165,-1.063026,7.649475,24.179081,39.933685,35.224689
612000,-0.201113,-0.665588,7.513005,24.194349,37.277195,31.667439
616000,-0.509965,-0.531513,7.314286,24.133280,32.498569,29.255222
620000,-0.500388,-0.450110,7.067683,25.614197,25.597805,26.384995
624000,-0.169988,-0.174777,6.991069,27.339388,20.010019,22.858276
628000,-0.265756,0.057461,6.902483,28.148548,11.246661,18.400261
632000,-0.098162,0.318429,6.957550,29.751600,5.490936,15.026215
636000,-0.189142,0.359130,6.995857,31.110380,1.506203,11.652169
640000,-0.193930,0.454898,6.914454,32.591293,-2.615934,8.552932
644000,-0.263362,0.610521,6.861782,34.224884,-5.944179,5.713238
648000,-0.246603,0.646434,6.708553,35.553127,-8.860209,3.255223
652000,-0.220267,0.797269,6.600814,35.736332,-10.967080,0.751406
656000,-0.196325,0.713472,6.540959,35.583660,-11.150286,-1.126457
660000,-0.316035,0.797269,6.679823,34.713432,-9.989981,-2.943251
664000,-0.392649,0.735020,6.837840,34.774502,-8.234255,-3.889816
668000,-0.359130,0.703895,6.809110,35.537861,-5.211354,-4.851647
672000,-0.495600,0.809240,6.687006,35.324120,-3.806774,-5.523403
676000,-0.658405,0.881066,6.641516,34.698166,-2.432728,-6.775311
680000,-0.952892,0.967257,6.631939,33.400455,-0.112117,-6.622640
684000,-0.936133,0.861913,6.859388,31.644730,4.040555,-5.844014
688000,-0.768539,0.735020,6.821081,30.881372,10.697042,-6.225693
692000,-1.051055,0.565032,6.622362,30.820303,15.994753,-6.210426
696000,-1.692701,0.600945,6.438008,31.186716,13.338264,-6.378365
700000,-1.355118,0.706290,6.189012,30.957708,12.223760,-6.927983
704000,-1.268927,0.895431,6.165070,30.118013,12.116890,-7.355464
708000,-1.764527,0.900220,6.198588,27.858471,10.803913,-7.050121
712000,-1.869871,0.751779,6.100426,26.774502,3.918417,-7.447067
716000,-1.491588,0.754174,6.754043,24.316486,3.384066,-8.088289
720000,-1.288081,0.416591,6.550536,28.056944,6.452768,-6.805846
724000,-1.556231,0.459687,6.332664,27.049311,3.399333,-8.302030
728000,-1.608904,0.433351,6.289568,24.606562,0.040554,-9.584473
732000,-1.910573,0.555455,6.251261,21.324120,-5.684637,-10.851648
736000,-1.596933,0.478840,6.212954,20.270685,-5.776239,-12.149358
740000,-2.140416,0.349553,6.234501,17.629463,-7.180820,-11.660809
744000,-2.133234,0.205901,6.318298,16.637096,-9.272423,-11.080656
748000,-1.975216,0.359130,6.514623,16.972975,-11.196087,-10.729510
752000,-2.102109,0.339977,6.607996,17.003510,-12.463263,-10.240961
756000,-2.432509,0.289698,6.794744,17.171448,-14.264790,-9.065389
760000,-2.638410,0.246603,6.754043,17.659998,-15.806774,-7.248594
764000,-2.470816,0.141258,6.787562,18.041677,-18.707539,-5.279129
768000,-2.401384,0.064643,7.053318,18.041677,-20.051048,-2.744777
772000,-2.078167,0.177171,6.969521,17.018776,-15.241889,-0.286762
776000,-2.020706,0.191536,6.991069,15.369921,-15.394561,0.446062
780000,-2.011129,0.203507,7.055712,14.118012,-13.791507,1.346826
784000,-1.908179,0.213084,7.211336,13.324119,-10.875477,2.720871
788000,-1.996764,0.232238,7.165846,12.621829,-10.432729,3.560566
792000,-1.853112,0.102951,7.314286,12.011142,-11.150286,3.896444
796000,-1.644817,0.069432,7.486669,11.629462,-11.196087,3.865910
800000,-1.501164,0.090980,7.503428,11.324119,-11.486164,3.102551
804000,-1.446098,0.160412,7.599196,11.614196,-11.073950,2.049116
808000,-1.608904,0.155623,7.596802,12.209615,-10.478530,1.636902
812000,-1.558625,0.023942,7.536947,12.545493,-10.051049,1.438429
816000,-1.414973,0.043096,7.692570,12.682898,-9.012881,1.255223
820000,-1.403002,0.014365,7.651869,12.438622,-7.883110,0.507131
824000,-1.496376,-0.019154,7.647080,12.179081,-7.531965,0.171253
828000,-1.628057,0.007183,7.745243,12.514958,-7.684637,-0.240961
832000,-1.649605,-0.009577,7.587225,12.728699,-8.646469,-0.164625
836000,-1.656788,-0.038307,7.422025,12.698165,-8.325858,-0.546304
840000,-1.774103,0.059855,7.544129,11.675264,-8.768606,-0.637907
844000,-1.831564,0.074220,7.422025,10.606562,-8.051049,-0.073022
848000,-2.011129,0.021548,7.292738,9.751600,-7.760972,1.270490
852000,-1.843535,0.000000,7.345411,8.789768,-7.654102,2.552932
856000,-1.886631,0.162806,7.398083,7.201982,-7.638835,3.316291
860000,-1.817199,0.189142,7.680599,5.995875,-7.012881,4.461329
864000,-1.719037,0.227449,7.620744,5.476791,-4.570133,6.003314
868000,-1.805228,0.191536,7.682993,5.385188,-2.432728,7.392627
872000,-1.821988,0.263362,7.541735,4.988241,-1.089217,9.041482
876000,-1.982399,0.270545,7.414843,4.423356,-1.028148,10.476596
880000,-2.066196,0.323217,7.441179,3.430989,-1.684637,12.507131
884000,-2.037466,0.174777,7.431602,2.774501,-2.585400,14.232322
888000,-1.848324,0.342371,7.405266,1.568394,-3.593034,15.438428
892000,-1.781286,0.349553,7.498640,0.041676,-4.463263,16.430796
896000,-1.769315,0.395043,7.594408,-1.286568,-5.730438,17.163620
900000,-1.582567,0.280122,7.627927,-2.202598,-6.096850,18.217054
904000,-1.424550,0.239420,7.656657,-3.179698,-4.371659,18.888811
908000,-1.189918,0.217872,7.764396,-3.515576,-4.234255,18.354460
912000,-0.931344,0.100556,7.797915,-3.561377,-3.165553,17.163620
916000,-0.914585,0.021548,7.946355,-3.347636,-2.844942,15.911712
920000,-0.797269,-0.035913,7.874529,-1.591912,-1.822041,14.400260
924000,-0.773327,-0.002394,7.960721,-0.355270,-0.417461,12.797207
928000,-0.859518,-0.179565,8.013393,1.217249,-0.967079,11.377359
932000,-0.837971,-0.339977,7.917625,2.637096,-1.669369,10.049115
936000,-0.632069,-0.409408,7.965509,3.385188,-1.272423,8.186520
940000,-0.723049,-0.440533,7.920019,3.553127,-1.196087,6.262856
944000,-0.818817,-0.457293,7.960721,3.324119,-1.959446,4.537665
948000,-1.089362,-0.495600,7.922413,3.598928,-2.661736,3.270490
952000,-1.218649,-0.581791,8.116343,4.163814,-2.967079,2.568200
956000,-1.467646,-0.560243,8.283937,4.301219,-3.257156,2.858276
960000,-1.575385,-0.517148,8.197746,4.255417,-3.837308,3.346826
964000,-1.687912,-0.581791,8.415619,4.133279,-2.692270,4.934612
968000,-1.738190,-0.471658,8.240842,3.263050,-1.440362,6.430795
972000,-1.594538,-0.371101,8.418014,2.621829,1.063455,8.033848
976000,-1.594538,-0.316035,8.346188,1.522592,4.162692,10.064383
980000,-1.726219,-0.237026,8.248025,0.453890,6.727577,12.018581
984000,-1.733402,-0.105345,8.137892,-0.584278,8.361164,13.957512
988000,-1.632846,-0.033519,8.049306,-1.652980,10.406966,15.667436
992000,-1.592144,0.107739,7.867347,-3.378171,11.872615,17.178886
996000,-1.798046,0.172383,7.577648,-5.561378,7.521471,17.178886
1000000,-1.326388,0.217872,7.850587,-6.645347,11.231394,19.392628
1004000,-1.051055,-0.081403,7.376535,-5.927790,12.040554,20.919346
1008000,-0.900220,0.150835,7.503428,-8.309469,12.666508,20.186522
1012000,-0.624887,0.198719,7.431602,-10.507942,13.231394,19.377361
1016000,-0.739808,0.090980,7.278373,-13.439240,9.994752,17.820108
1020000,-0.373495,-0.026336,7.383718,-14.263667,10.498569,16.384995
1024000,-0.122104,-0.198719,7.469909,-14.141530,14.468035,15.392627
1028000,-0.435745,-0.179565,7.582437,-16.126263,12.025287,12.369726
1032000,-0.598550,-0.265756,7.615956,-16.935423,7.445135,9.759039
1036000,-0.651223,-0.320823,7.996634,-17.668247,3.536737,6.797207
1040000,-0.754174,-0.481235,8.343793,-16.065193,3.628341,5.774307
1044000,-0.960075,-0.495600,8.556877,-15.759851,-0.020514,3.438429
1048000,-0.974440,-0.565032,8.997410,-13.683515,2.025287,3.957513
1052000,-1.386243,-0.612916,8.978256,-12.706416,-1.577766,2.415528
1056000,-1.225831,-0.737414,9.018958,-10.416339,-2.005247,2.369726
1060000,-1.410185,-0.605733,9.093178,-9.088095,-2.661736,2.003314
1064000,-1.508347,-0.641646,9.011775,-7.881988,-4.035782,1.865910
1068000,-1.544260,-0.725443,9.011775,-6.202599,-4.951812,2.339192
1072000,-1.438915,-0.694318,8.932767,-4.401072,-4.783873,2.781940
1076000,-1.302446,-0.634463,8.949526,-3.546110,-5.135018,3.072016
1080000,-1.244985,-0.612916,8.839393,-3.485041,-4.035782,3.301024
1084000,-1.101333,-0.505177,8.798691,-3.439240,-0.524331,4.171253
1088000,-1.142034,-0.543484,8.686164,-3.652980,1.781012,4.629269
1092000,-1.015141,-0.553061,8.604761,-4.187331,5.048188,5.468963
1096000,-1.170765,-0.579397,8.494628,-4.324736,7.017653,5.728505
1100000,-1.216254,-0.603339,8.382100,-5.027026,7.826814,6.232322
1104000,-1.182736,-0.701501,8.520964,-5.622446,9.139791,6.247589
1108000,-1.187524,-0.703895,8.501810,-5.973591,10.147424,6.079650
1112000,-1.393425,-0.620098,8.410830,-5.881988,10.300096,6.446063
1116000,-1.438915,-0.610521,8.374918,-6.004126,9.628340,7.056749
1120000,-1.431733,-0.644040,8.327033,-6.278934,8.697042,7.392627
1124000,-1.364695,-0.670376,8.468291,-6.569011,7.689410,7.804841
1128000,-1.247379,-0.665588,8.547300,-6.859087,7.490936,7.591100
1132000,-1.304840,-0.612916,8.690952,-7.179698,7.826814,7.575834
1136000,-1.300052,-0.591368,8.690952,-7.240767,8.284829,7.713238
1140000,-1.328782,-0.694318,8.750807,-7.362904,8.666508,7.606368
1144000,-1.201889,-0.665588,8.786720,-7.485042,9.322997,7.942246
1148000,-1.034295,-0.653617,8.741230,-7.866721,10.834447,7.270490
1152000,-1.070208,-0.691924,8.700529,-8.385805,11.552004,6.354459
1156000,-0.940921,-0.778116,8.815451,-8.233133,11.506203,5.468963
1160000,-1.027112,-0.885855,8.892065,-7.820919,11.139791,4.323925
1164000,-1.070208,-0.864307,8.968679,-6.416339,9.887882,2.949879
1168000,-0.909797,-1.055843,9.021352,-4.523210,8.788646,1.713238
1172000,-0.658405,-1.314417,9.131485,-2.752217,8.574905,-0.454701
1176000,-0.636858,-1.331176,9.179369,-0.965957,9.017653,-3.233327
1180000,-0.852336,-1.393425,9.258378,1.247783,8.376431,-5.828747
1184000,-1.194707,-1.443704,9.069236,3.583661,6.681776,-7.538671
1188000,-1.491588,-1.450886,9.066842,6.133279,3.750478,-8.683709
1192000,-1.793257,-1.434127,8.978256,7.843203,1.078722,-9.080656
1196000,-1.977611,-1.386243,9.002198,8.026409,-1.547232,-9.172258
1200000,-1.956063,-1.438915,9.085996,7.889005,-2.402194,-8.393633
1204000,-2.111686,-1.367089,9.169792,8.453890,-1.425095,-7.370731
1208000,-2.264915,-1.304840,9.052477,8.927173,-0.341125,-5.691342
1212000,-2.403779,-1.209072,9.074024,9.110378,-0.310591,-3.721877
1216000,-2.561796,-0.993594,8.817844,8.331753,0.590173,-1.202793
1220000,-2.712631,-0.919373,8.616732,7.064577,1.078722,1.636902
1224000,-2.822764,-0.773327,8.554482,5.797401,2.116890,5.270490
1228000,-2.647987,-0.634463,8.382100,4.331753,3.368799,9.148352
1232000,-1.932121,-0.502782,8.341399,2.377554,6.254295,11.942245
1236000,-1.594538,-0.375890,8.281544,0.896638,10.452767,13.575833
1240000,-1.312023,-0.270545,8.329428,-1.225499,14.132157,14.247588
1244000,-1.070208,-0.150835,8.087613,-3.378171,16.864981,14.598734
1248000,-1.043872,-0.148441,8.094796,-4.996491,17.658875,13.820107
1252000,-0.995988,-0.004788,8.032547,-6.141530,16.819180,12.797207
1256000,-0.890643,-0.172383,7.917625,-7.027026,15.200859,11.270490
1260000,-0.837971,-0.248997,8.013393,-7.485042,12.559638,9.575833
1264000,-0.723049,-0.354342,8.109161,-6.859087,9.429867,6.888811
1268000,-0.785298,-0.430956,8.355764,-5.927790,5.185593,3.881177
1272000,-0.768539,-0.478840,8.329428,-4.156797,0.559638,1.468963
1276000,-0.857124,-0.481235,8.501810,-2.385804,-3.379293,-1.233327
1280000,-0.969652,-0.557849,8.513782,-1.194965,-6.722805,-3.324930
1284000,-1.012747,-0.615310,8.638280,-0.141530,-9.516698,-5.248594
1288000,-1.005565,-0.826000,8.774749,1.018775,-12.890744,-7.294395
1292000,-0.876278,-0.864307,8.949526,2.698165,-12.906011,-9.385999
1296000,-0.974440,-0.943315,8.959103,4.469157,-12.967080,-11.156992
1300000,-1.285686,-1.053449,8.971074,5.614195,-13.318225,-12.317297
1304000,-1.503559,-1.043872,8.956709,6.957707,-12.829675,-12.729510
1308000,-1.826776,-1.106121,8.880095,7.278317,-12.051049,-12.347831
1312000,-2.027889,-1.108515,8.868123,7.064577,-12.020514,-10.866915
1316000,-2.248155,-1.103727,8.827422,6.621829,-10.677003,-9.599740
1320000,-2.298434,-1.146823,8.741230,7.186714,-9.257156,-6.927983
1324000,-2.240973,-1.142034,8.396465,7.873737,-7.302957,-4.363098
1328000,-2.018312,-0.972046,8.054094,7.232516,-4.982347,-2.149358
1332000,-1.953669,-0.797269,7.951144,5.766867,-2.585400,0.003314
1336000,-1.872266,-0.723049,7.812280,3.812669,-0.921278,1.545299
1340000,-1.620875,-0.600945,7.656657,1.812669,1.261928,3.102551
1344000,-1.582567,-0.550666,7.606379,-0.431606,2.727577,4.247589
1348000,-1.414973,-0.481235,7.625533,-2.950690,3.826814,4.934612
1352000,-1.151611,-0.421380,7.623138,-5.088095,5.613073,5.148353
1356000,-1.084573,-0.442927,7.879318,-6.691149,7.277195,4.858276
1360000,-1.048660,-0.486023,7.869741,-8.019393,8.284829,4.201787
1364000,-1.113304,-0.478840,7.936779,-9.088095,8.071088,3.942245
1368000,-1.292869,-0.505177,8.169016,-9.927790,6.406967,2.873543
1372000,-1.333570,-0.627281,8.365341,-10.110995,5.048188,2.384994
1376000,-1.424550,-0.663194,8.712500,-9.485042,3.460402,1.606368
1380000,-1.403002,-0.701501,8.870518,-7.881988,1.948951,0.904078
1384000,-1.424550,-0.672771,8.904037,-6.538477,0.773379,0.278123
1388000,-1.333570,-0.713472,9.016563,-4.904889,0.116890,-0.515770
1392000,-1.331176,-0.677559,8.939949,-3.057560,0.193226,-1.599739
1396000,-1.350330,-0.711078,8.719683,-2.095728,-0.035782,-2.149358
1400000,-1.410185,-0.744597,8.650250,-0.935423,-0.570133,-3.095922
1404000,-1.280898,-0.687136,8.604761,-0.065194,-0.967079,-4.042487
1408000,-1.371878,-0.694318,8.671799,0.331753,-0.692270,-5.050121
1412000,-1.362301,-0.658405,8.523358,1.034043,0.101623,-5.584472
1416000,-1.395820,-0.835576,8.576031,1.721066,0.758111,-5.844014
1420000,-1.398214,-0.881066,8.465898,2.163814,1.200860,-6.073021
1424000,-1.604115,-0.921768,8.317456,2.102745,1.155058,-6.500503
1428000,-1.711854,-0.926556,8.295909,1.629462,1.460402,-6.164625
1432000,-1.841141,-0.905008,8.355764,0.942440,0.406966,-5.706609
1436000,-1.903390,-0.991199,8.465898,0.056943,0.590173,-5.004319
1440000,-1.903390,-1.067814,8.403648,-0.309469,0.422234,-4.225693
1444000,-1.893813,-1.249773,8.362947,-0.156797,0.590173,-3.294396
1448000,-1.841141,-1.307234,8.365341,0.163814,1.536737,-2.760045
1452000,-1.833959,-1.230620,8.420407,-0.065194,2.620707,-1.981419
1456000,-1.891419,-1.213860,8.133103,-0.263667,3.261928,-1.248594
1460000,-1.845930,-1.225831,8.219295,-0.172064,3.765745,-0.317297
1464000,-1.786075,-1.228225,8.279149,-0.492675,3.490936,0.262856
1468000,-1.601721,-1.189918,8.200141,-1.225499,4.529104,0.568200
1472000,-1.450886,-1.173159,8.147469,-2.156797,5.582539,0.583467
1476000,-1.498770,-1.130063,8.169016,-2.736950,6.345898,0.690337
1480000,-1.532289,-1.144428,8.188169,-3.149163,6.849715,0.629268
1484000,-1.580173,-1.074997,8.286332,-3.637713,6.284829,0.720871
1488000,-1.675941,-1.122881,8.382100,-4.248401,6.147425,0.888810
1492000,-1.738190,-1.173159,8.415619,-4.584278,4.758111,1.056749
1496000,-1.800440,-1.180341,8.683769,-4.782751,3.200860,1.423162
1500000,-1.860295,-1.098939,8.813056,-4.767485,2.422234,1.743772
1504000,-1.927332,-1.055843,8.911219,-4.630079,1.506203,2.278123
1508000,-1.891419,-1.086968,8.997410,-3.988858,1.261928,3.148352
1512000,-1.860295,-1.098939,8.920795,-3.133896,1.689409,3.865910
1516000,-1.802834,-1.067814,8.935161,-2.843820,2.742844,4.461329
1520000,-1.563414,-0.984017,8.882488,-2.950690,3.750478,4.522398
1524000,-1.496376,-0.974440,8.851364,-2.507942,4.834447,4.094917
1528000,-1.438915,-0.885855,8.942344,-2.416339,4.910783,3.484231
1532000,-1.510741,-0.861913,8.856153,-2.187331,4.055821,2.766673
1536000,-1.661576,-0.876278,8.738836,-1.500308,2.773379,1.865910
1540000,-1.781286,-0.787692,8.573636,-1.118629,0.910783,1.591100
1544000,-1.778892,-0.751779,8.506598,-0.721682,-0.692270,1.514765
1548000,-1.675941,-0.691924,8.456321,-0.874354,-1.394560,1.178887
1552000,-1.618480,-0.823605,8.513782,-0.736950,-1.852576,1.438429
1556000,-1.379060,-0.708684,8.511387,-0.477408,-1.638835,1.026215
1560000,-1.295263,-0.790087,8.508993,0.362287,-0.829675,0.491864
1564000,-1.345541,-0.713472,8.329428,1.049310,-0.432728,-0.042487
1568000,-1.371878,-0.718261,8.149862,0.835569,-0.035782,-0.943251
1572000,-1.510741,-0.770933,8.171411,0.682898,-0.356392,-1.263861
1576000,-1.632846,-0.732626,8.042124,0.194348,-1.272423,-1.385999
1580000,-1.807622,-0.778116,8.166622,-0.309469,-2.096850,-1.263861
1584000,-1.939303,-0.782904,8.101978,-0.630080,-3.043415,-0.836380
1588000,-1.920150,-0.768539,8.094796,-1.317102,-3.516698,-0.179892
1592000,-1.829170,-0.821211,8.066066,-1.912522,-2.738072,0.949879
1596000,-1.450886,-0.802058,8.169016,-2.706415,-0.982347,1.346826
1600000,-1.151611,-0.826000,8.090008,-2.920156,1.353531,0.705604
1604000,-1.216254,-0.826000,8.063671,-3.591912,2.712310,-0.042487
1608000,-1.343147,-0.902614,8.063671,-3.622446,2.681776,-0.958518
1612000,-1.486799,-0.940921,8.173804,-3.912522,1.903150,-1.737144
1616000,-1.697489,-0.945710,8.303091,-4.110995,1.017653,-1.966151
1620000,-1.819593,-0.964863,8.243237,-4.263667,-0.096850,-2.103556
1624000,-1.939303,-0.950498,8.293514,-4.202599,-0.829675,-1.401266
1628000,-2.068590,-0.933739,8.453926,-4.141530,-1.043415,-0.393632
1632000,-1.975216,-0.905008,8.451532,-4.431606,-0.860209,0.384994
1636000,-1.793257,-0.828394,8.386889,-4.981225,-0.112117,1.209421
1640000,-1.458069,-0.940921,8.374918,-5.057561,0.910783,1.606368
1644000,-1.266533,-0.950498,8.571242,-4.721683,2.208493,0.965146
1648000,-1.216254,-1.022324,8.592790,-3.943056,3.643608,0.354459
1652000,-1.237802,-1.024718,8.631097,-2.859087,3.918417,-0.576838
1656000,-1.383849,-1.022324,8.576031,-1.912522,4.147425,-1.080655
1660000,-1.668759,-0.988805,8.595184,-2.263667,3.231394,-1.645541
1664000,-1.824382,-0.967257,8.568848,-2.324736,2.880249,-1.676075
1668000,-1.862689,-1.015141,8.475474,-2.248400,2.254295,-0.912716
1672000,-2.030283,-1.060631,8.530540,-1.973591,0.681776,-0.378365
1676000,-2.104503,-0.986411,8.643068,-1.805652,-1.104484,0.629268
1680000,-1.860295,-0.933739,8.590396,-2.004125,-1.822041,1.239955
1684000,-1.558625,-1.027112,8.719683,-2.187331,-1.257156,1.499497
1688000,-1.522712,-1.101333,8.714894,-2.141530,-0.127385,2.018581
1692000,-1.429338,-1.139640,8.678981,-2.172064,0.971852,1.697971
1696000,-1.592144,-1.060631,8.674192,-2.507942,1.490936,1.667436
1700000,-1.663970,-1.094150,8.619126,-2.859087,1.521470,1.239955
1704000,-1.675941,-1.149217,8.693346,-2.889621,1.567272,1.377360
1708000,-1.924938,-1.113304,8.638280,-2.507942,1.155058,1.957513
1712000,-1.953669,-1.110910,8.667010,-2.233133,-0.249522,2.522398
1716000,-1.872266,-1.017536,8.626308,-1.988858,-0.753339,2.736139
1720000,-1.695095,-1.027112,8.465898,-2.614812,-0.432728,3.468963
1724000,-1.549049,-0.967257,8.329428,-2.843820,0.758111,3.026215
1728000,-1.403002,-0.902614,8.327033,-2.904888,1.353531,2.766673
1732000,-1.405396,-0.864307,8.350976,-3.149163,1.597806,2.018581
1736000,-1.383849,-0.933739,8.343793,-3.652980,1.384066,1.239955
1740000,-1.448492,-0.888249,8.408437,-3.591912,0.681776,0.522398
1744000,-1.489193,-0.933739,8.456321,-3.439240,-0.661736,-0.210426
1748000,-1.477222,-1.036689,8.549694,-3.027026,-1.837308,-0.592106
1752000,-1.465251,-1.185130,8.599973,-2.278934,-2.096850,-1.095922
1756000,-1.412579,-1.146823,8.588001,-1.714049,-1.883110,-1.874548
1760000,-1.582567,-1.165976,8.628703,-1.515576,-2.447995,-2.256228
1764000,-1.611298,-1.185130,8.722076,-0.599545,-3.287690,-2.683709
1768000,-1.675941,-1.194707,8.748413,-0.110996,-3.776240,-2.698976
1772000,-1.723825,-1.199495,8.798691,0.102745,-4.035782,-2.424167
1776000,-1.790863,-1.211466,8.863335,0.484424,-3.669369,-2.042487
1780000,-1.819593,-1.204283,8.925584,0.805035,-2.906011,-1.615006
1784000,-1.845930,-1.098939,8.954314,0.927172,-1.867843,-0.760045
1788000,-1.927332,-1.060631,8.918402,0.789768,-1.028148,0.278123
1792000,-1.965640,-1.017536,8.870518,1.003508,-0.005247,1.575833
1796000,-1.939303,-1.003170,8.774749,0.850837,1.368798,2.812474
1800000,-1.740585,-0.864307,8.623915,0.942440,2.208493,3.820108
1804000,-1.644817,-0.895431,8.485051,0.606562,3.536737,4.247589
1808000,-1.503559,-0.794875,8.295909,0.866104,4.590173,4.369727
1812000,-1.462857,-0.694318,8.286332,0.560760,5.170325,4.262856
1816000,-1.522712,-0.646434,8.135497,0.240150,4.987119,3.591101
1820000,-1.505953,-0.605733,8.094796,-0.584278,4.361165,3.285757
1824000,-1.525106,-0.622492,8.075643,-0.996492,3.124524,2.919345
1828000,-1.505953,-0.703895,8.063671,-1.347636,1.506203,2.568200
1832000,-1.529895,-0.746991,8.039729,-1.637713,0.055821,2.003314
1836000,-1.491588,-0.689530,8.022970,-2.110996,-0.677003,1.606368
1840000,-1.558625,-0.773327,8.049306,-2.340003,-1.180820,1.087284
1844000,-1.558625,-0.878672,7.881712,-2.324736,-1.348759,0.629268
1848000,-1.654393,-0.811634,8.020576,-2.278934,-1.883110,0.888810
1852000,-1.745373,-0.830788,7.951144,-2.859087,-2.677003,0.675070
1856000,-1.721431,-0.897826,7.943961,-3.332370,-2.493797,1.117818
1860000,-1.687912,-0.955287,8.022970,-3.805652,-1.837308,1.148352
1864000,-1.491588,-0.912191,8.142680,-4.416339,-0.967079,1.133085
1868000,-1.467646,-0.988805,8.288726,-4.645347,0.605440,0.873543
1872000,-1.572991,-1.048660,8.386889,-4.492675,1.750478,0.369726
1876000,-1.537078,-1.089362,8.343793,-4.324736,1.948951,-0.149358
1880000,-1.661576,-1.213860,8.274361,-4.370538,1.765745,-0.592106
1884000,-1.764527,-1.288081,8.269572,-4.569011,0.590173,-0.760045
1888000,-1.821988,-1.297657,8.240842,-4.721683,-0.600667,-1.034854
1892000,-1.939303,-1.369483,8.556877,-4.462141,-2.432728,-0.989052
1896000,-1.991976,-1.379060,8.516175,-4.065194,-3.058682,-0.485235
1900000,-1.963245,-1.438915,8.504205,-3.576644,-3.058682,0.217055
1904000,-1.824382,-1.438915,8.549694,-3.210232,-2.677003,0.705604
1908000,-1.853112,-1.400608,8.463503,-3.133896,-2.142652,1.117818
1912000,-1.798046,-1.295263,8.422802,-3.576644,-1.318224,1.682703
1916000,-1.845930,-1.369483,8.475474,-4.294202,-0.890743,2.186520
1920000,-1.824382,-1.352724,8.559271,-4.309469,-0.478530,3.163620
1924000,-1.726219,-1.374272,8.487445,-4.019392,0.788646,3.621635
1928000,-1.766921,-1.302446,8.453926,-3.881988,2.437501,4.339192
1932000,-1.731008,-1.216254,8.382100,-4.202599,3.032921,5.026215
1936000,-1.759738,-1.192312,8.367735,-5.072827,3.338264,5.346826
1940000,-1.754950,-1.077391,8.358158,-5.851454,3.048188,5.468963
1944000,-1.824382,-1.084573,8.420407,-6.248401,2.498570,5.820108
1948000,-1.848324,-0.991199,8.348581,-6.706415,1.307730,6.201787
1952000,-1.857901,-1.082179,8.413225,-6.691149,-0.432728,6.461329
1956000,-1.786075,-1.005565,8.556877,-6.538477,-0.921278,6.690337
1960000,-1.762132,-0.952892,8.389283,-6.385805,-0.783873,6.919345
1964000,-1.745373,-0.950498,8.221688,-6.294202,-0.570133,7.301024
1968000,-1.687912,-0.952892,8.171411,-6.431606,-0.860209,7.636902
1972000,-1.539472,-0.859518,8.257602,-6.874354,-1.012881,7.178887
1976000,-1.414973,-0.909797,8.178593,-7.210233,-1.196087,6.583467
1980000,-1.223437,-0.871489,8.286332,-7.637713,-0.554866,6.094917
1984000,-1.151611,-0.871489,8.243237,-7.485042,0.590173,4.949879
1988000,-1.177947,-0.926556,8.310274,-7.210233,1.155058,3.606368
1992000,-1.168370,-0.919373,8.346188,-7.179698,1.765745,2.155986
1996000,-1.300052,-0.845153,8.324639,-7.271301,2.208493,0.873543
