time_us,ax,ay,az,gx,gy,gz
0,-0.055067,0.270545,8.497022,-8.385805,-2.570133,-1.309663
4000,0.002394,0.237026,8.765172,-7.836186,-3.348759,-1.050121
8000,0.172383,0.241814,9.045294,-6.401072,-2.829675,-1.004319
12000,0.225055,0.253785,8.815451,-6.156797,-1.409827,-1.019587
16000,0.193930,0.304064,8.836999,-6.370538,-0.860209,-1.431800
20000,0.057461,0.227449,8.643068,-6.569011,-0.707537,-1.401266
24000,-0.122104,0.189142,8.590396,-7.393438,-2.677003,-1.355464
28000,-0.081403,0.114922,8.516175,-7.469774,-5.272423,-1.889816
32000,-0.069432,0.071826,8.621520,-7.256034,-8.157919,-2.057755
36000,0.055067,-0.050278,8.834604,-7.301835,-10.264790,-2.637907
40000,0.119710,-0.093374,9.002198,-6.813286,-10.218988,-3.034854
44000,0.107739,-0.165200,9.105149,-6.187331,-9.898377,-3.034854
48000,0.160412,-0.213084,9.253590,-5.286569,-9.562500,-3.248594
52000,0.062249,-0.229843,9.435549,-3.591912,-6.707537,-3.370732
56000,0.000000,-0.280122,9.327810,-1.775118,-6.677003,-2.882182
60000,-0.069432,-0.284910,9.284714,-1.256034,-5.593033,-2.408900
64000,-0.311246,-0.210690,8.999804,-1.088094,-7.043415,-1.935617
68000,-0.131681,-0.268151,9.004593,-0.660614,-5.409827,-1.019587
72000,-0.124498,-0.169988,8.825027,-0.889621,-3.073950,-0.210426
76000,0.040701,-0.153229,8.880095,-1.301835,-2.310591,0.476597
80000,0.134075,-0.079009,8.987833,-1.943056,-0.432728,0.781940
84000,0.193930,0.016759,8.710106,-2.492675,-0.020514,1.087284
88000,0.296881,0.023942,8.810662,-3.179698,1.124524,1.209421
92000,0.375890,0.074220,8.628703,-2.965957,2.330631,0.843009
96000,0.282516,0.102951,8.635885,-3.210232,2.086356,0.629268
100000,0.289698,0.090980,8.635885,-3.744583,2.177959,0.446062
104000,0.184354,0.114922,8.817844,-4.034659,1.384066,0.064383
108000,0.184354,0.011971,8.836999,-3.439240,2.055821,0.446062
112000,0.129287,0.028730,8.813056,-3.011759,2.361165,0.568200
116000,0.100556,-0.014365,8.772355,-2.675881,2.025287,0.690337
120000,0.146046,-0.045490,8.702923,-2.202598,1.796279,0.461329
124000,0.174777,-0.059855,8.614338,-2.110996,1.429867,0.278123
128000,-0.126893,-0.045490,8.437167,-2.965957,-4.722805,-1.233327
132000,0.167594,0.026336,8.906430,-1.805652,-2.982346,-0.851648
136000,-0.045490,-0.134075,8.681376,-0.553744,-8.295323,-1.050121
140000,0.023942,-0.119710,8.801085,0.331753,-10.341125,-1.248594
144000,0.002394,-0.086191,9.011775,0.453890,-12.005248,-1.538671
148000,-0.016759,-0.232238,8.963891,0.774501,-14.417461,-1.660808
152000,0.062249,-0.248997,8.992621,1.583661,-12.417461,-0.866915
156000,-0.033519,-0.174777,8.712500,0.805035,-11.257156,-0.210426
160000,0.035913,-0.134075,8.712500,0.438623,-9.638836,0.384994
164000,0.004788,-0.189142,8.664616,0.148546,-8.585401,1.133085
168000,0.011971,-0.189142,8.614338,-0.507942,-7.562499,1.972780
172000,0.136469,-0.193930,8.774749,-1.286568,-6.692270,2.171253
176000,0.301669,-0.220267,8.798691,-1.683514,-2.738072,3.072016
180000,0.217872,-0.191536,8.743625,-1.973591,-0.066316,3.697971
184000,0.426168,-0.131681,8.597578,-1.714049,1.414600,3.560566
188000,0.440533,-0.107739,8.595184,-2.248400,3.200860,3.209421
192000,0.375890,-0.110133,8.511387,-2.767484,3.200860,2.858276
196000,0.366313,-0.081403,8.312668,-3.118629,2.895516,2.079650
200000,0.325611,-0.148441,8.307879,-3.576644,2.239028,1.484230
204000,0.277727,-0.136469,8.267179,-4.614813,1.719944,1.209421
208000,0.270545,-0.158017,8.202535,-5.683515,0.803913,0.888810
212000,0.119710,-0.172383,8.427590,-6.370538,0.910783,1.056749
216000,0.050278,-0.287304,8.599973,-6.736950,0.361165,1.407894
220000,0.057461,-0.277727,8.489840,-7.118629,-0.280056,1.926978
224000,0.153229,-0.193930,8.571242,-7.500309,-0.585400,2.064383
228000,0.201113,-0.272939,8.595184,-7.851454,-0.249522,2.232322
232000,0.351948,-0.272939,8.760384,-7.988858,-0.234255,2.171253
236000,0.385466,-0.260968,8.935161,-7.454507,-1.699904,1.652169
240000,0.447716,-0.296881,9.473856,-6.294202,-3.073950,1.117818
244000,0.490811,-0.371101,9.646238,-4.782751,-3.776240,0.308658
248000,0.493206,-0.313640,9.765948,-3.057560,-4.035782,-0.225693
252000,0.488417,-0.270545,9.710882,-1.637713,-3.699904,-0.989052
256000,0.383072,-0.282516,9.672575,0.041676,-2.967079,-0.927984
260000,0.428562,-0.275333,9.488221,1.324119,-1.898377,-0.531037
264000,0.320823,-0.287304,9.270349,1.889004,-1.119751,-0.286762
268000,0.395043,-0.299275,9.054871,2.224883,-0.295324,-0.088289
272000,0.454898,-0.289698,9.131485,2.209615,1.078722,0.110184
276000,0.555455,-0.280122,9.064447,2.133279,2.590173,0.140719
280000,0.644040,-0.330400,8.939949,2.118012,4.574905,-0.210426
284000,0.567426,-0.335188,8.791509,1.507325,6.177959,-0.195159
288000,0.459687,-0.409408,8.628703,0.972974,6.712310,-0.561571
292000,0.387861,-0.495600,8.765172,0.331753,5.826814,-0.698976
296000,0.351948,-0.584185,8.937555,-0.080461,4.849715,-0.912716
300000,0.301669,-0.682347,8.959103,-0.095728,4.651241,-1.233327
304000,0.284910,-0.806846,9.167398,0.285951,4.849715,-1.019587
308000,0.323217,-0.943315,9.251195,0.988241,7.200860,-0.973785
312000,0.248997,-1.041478,9.287108,1.644730,9.964218,-0.485235
316000,0.050278,-0.998382,9.172187,2.148547,11.872615,0.217055
320000,0.055067,-1.086968,9.186552,2.285951,13.460402,0.736139
324000,0.112527,-1.237802,9.311050,2.850837,15.918417,0.858276
328000,0.069432,-1.072602,9.318233,3.263050,18.513836,1.346826
332000,-0.028730,-1.142034,9.260772,3.492058,19.231394,1.591100
336000,-0.045490,-1.149217,9.224859,3.308852,19.445133,1.636902
340000,-0.172383,-1.331176,9.035717,3.690531,15.933683,1.835375
344000,-0.251391,-1.312023,9.414001,3.568394,14.742844,1.178887
348000,-0.071826,-1.438915,9.296685,6.560760,15.872616,2.736139
352000,-0.086191,-1.551443,9.119514,7.492058,15.261928,3.041482
356000,-0.081403,-1.616086,9.145850,8.026409,15.811546,3.362093
360000,-0.110133,-1.692701,9.002198,8.927173,14.880248,3.743773
364000,0.155623,-1.745373,8.935161,9.461524,17.872616,4.659803
368000,0.179565,-1.843535,9.014170,10.789768,21.017653,5.728505
372000,0.392649,-1.956063,9.083601,11.339386,22.697042,5.407895
376000,0.397437,-2.066196,9.126697,12.163814,25.552004,5.362093
380000,0.349553,-2.037466,8.930372,12.927173,28.101622,5.072017
384000,0.342371,-2.116474,8.504205,12.667630,30.116890,4.980413
388000,0.172383,-2.233790,8.422802,12.179081,30.040554,4.843009
392000,0.009577,-2.269703,8.250419,11.263050,28.483301,4.110185
396000,-0.162806,-2.382231,8.228871,10.041677,25.750477,3.545299
400000,-0.409408,-2.559402,8.413225,8.896638,23.032921,2.965146
404000,-0.296881,-2.722207,8.437167,8.209616,20.345898,2.537665
408000,-0.672771,-2.695871,8.480263,6.759233,13.597806,0.446062
412000,-0.222661,-3.031059,8.552089,8.102745,16.498569,1.545299
416000,-0.476446,-3.050213,8.839393,7.461524,19.231394,1.209421
420000,-0.780510,-2.930503,8.583213,5.980608,15.002386,0.491864
424000,-0.624887,-3.078943,8.825027,4.789768,13.582539,0.705604
428000,-0.517148,-3.083732,9.363723,3.156180,5.689409,-0.607373
432000,0.028730,-3.074155,9.653421,4.377554,3.628341,-2.118823
436000,0.126893,-3.086126,9.995792,5.858470,9.261928,-2.347831
440000,0.014365,-3.055001,10.072407,7.492058,9.964218,-3.721877
444000,0.232238,-3.064578,10.029311,8.820302,12.025287,-4.118823
448000,0.150835,-3.055001,9.876082,9.110378,13.658875,-4.958518
452000,0.222661,-3.016694,9.844957,10.209616,14.376431,-4.989052
456000,0.177171,-3.021482,9.935937,10.545493,12.910783,-5.813479
460000,0.313640,-3.131616,9.916783,11.568394,12.116890,-6.271495
464000,0.373495,-3.215413,9.746795,12.545493,11.796279,-6.378365
468000,0.639252,-3.102885,9.610326,13.278317,15.674141,-6.622640
472000,0.694318,-2.966416,9.682152,13.156180,20.223761,-6.607373
476000,0.842759,-2.928109,9.902418,15.003509,25.903149,-6.943251
480000,0.725443,-2.896984,9.758766,15.705798,29.643608,-6.561571
484000,0.665588,-2.880225,9.780313,17.568394,32.422234,-7.156991
488000,0.442927,-2.856283,9.497798,18.576027,31.048187,-7.828747
492000,0.383072,-2.834735,9.327810,18.896639,29.032921,-8.469969
496000,-0.035913,-2.796427,9.179369,18.163815,27.093988,-8.790579
500000,-0.129287,-2.801216,9.244013,17.950073,25.384066,-8.546305
504000,-0.445322,-2.710236,9.109938,17.507326,23.704676,-7.401266
508000,-0.531513,-2.566584,8.906430,16.423355,21.261929,-5.905083
512000,-0.328006,-2.482787,9.083601,15.507325,19.811546,-4.729510
516000,-0.009577,-2.327164,9.241618,15.446257,19.185593,-4.882182
520000,0.105345,-2.288857,9.390059,15.812669,18.880249,-5.324930
524000,0.299275,-2.317587,9.390059,16.560760,20.010019,-6.668441
528000,0.105345,-2.384625,9.311050,17.201982,20.788645,-7.874548
532000,0.014365,-2.439692,9.287108,18.270683,20.712309,-8.851648
536000,-0.198719,-2.425326,8.990228,18.866104,18.498569,-10.531037
540000,-0.363919,-2.456451,9.143456,19.140913,15.872616,-12.378366
544000,-0.517148,-2.554613,9.088389,19.950073,13.093989,-13.569205
548000,-0.751779,-2.430115,8.904037,20.423357,10.223760,-15.034854
552000,-1.151611,-2.157176,8.710106,19.812670,8.071088,-15.065389
556000,-1.347936,-1.948880,8.350976,18.805035,5.490936,-14.683709
560000,-1.575385,-1.675941,8.228871,16.820303,4.193226,-13.263862
564000,-1.412579,-1.477222,8.054094,15.018775,3.552005,-11.172258
568000,-0.931344,-1.182736,7.800309,12.560760,2.697043,-10.729510
572000,-0.428562,-0.888249,7.493851,7.980608,1.643608,-11.218060
576000,-0.038307,-0.804452,7.682993,3.934806,1.857348,-12.286762
580000,0.359130,-0.773327,7.886500,1.430989,5.429867,-13.523404
584000,0.545878,-0.708684,8.082825,0.850837,10.987119,-14.256228
588000,0.471658,-0.644040,7.829040,-0.370538,13.017653,-15.844014
592000,0.596156,-0.627281,8.054094,-1.332370,19.246660,-17.355463
596000,0.440533,-0.809240,7.534553,0.499691,25.338264,-17.859282
600000,-0.102951,-0.639252,7.273585,-2.477408,24.437500,-19.752411
604000,-0.450110,-0.739808,7.194576,-4.675881,23.964218,-20.973785
608000,-0.823605,-0.809240,7.175423,-5.744583,24.529104,-20.790579
612000,-1.173159,-0.723049,7.062895,-7.729317,23.979485,-19.599739
616000,-1.403002,-0.627281,7.268796,-11.423973,20.635973,-19.279127
620000,-1.256956,-0.754174,7.627927,-13.469775,21.918417,-18.760044
624000,-1.139640,-0.897826,7.903260,-14.507943,21.170324,-19.141724
628000,-1.019930,-1.089362,8.140285,-14.217866,20.239027,-19.813478
632000,-0.993594,-1.046266,8.576031,-13.943057,18.987120,-21.279127
636000,-1.259350,-0.852336,8.640674,-13.866721,19.826813,-22.027220
640000,-1.606509,-0.701501,8.935161,-14.202600,19.628340,-22.989052
644000,-1.917756,-0.533907,8.983045,-14.874354,22.315363,-22.256227
648000,-2.245761,-0.418985,8.726865,-15.362905,23.582539,-20.958517
652000,-2.590526,-0.524330,8.619126,-15.576644,25.185593,-17.874548
656000,-2.683900,-0.555455,8.291121,-15.576644,25.613073,-15.477602
660000,-2.559402,-0.541090,7.999028,-16.614811,23.964218,-13.187526
664000,-2.346318,-0.316035,7.800309,-18.889620,22.269562,-12.011953
668000,-2.454057,-0.105345,7.797915,-21.546110,19.887882,-11.279129
672000,-2.272097,-0.011971,7.862558,-23.912521,19.399332,-10.592106
676000,-2.497152,-0.169988,7.888895,-25.637712,16.239027,-9.492869
680000,-2.317587,0.021548,7.967903,-25.027025,9.857347,-8.668442
684000,-2.037466,0.205901,8.054094,-24.965956,5.658875,-8.271495
688000,-1.874660,0.304064,8.104373,-25.408705,0.941318,-8.882182
692000,-1.723825,0.399832,8.365341,-26.523209,0.071089,-8.714244
696000,-1.690306,0.574608,8.750807,-26.309467,1.735211,-7.813479
700000,-1.455675,0.739808,8.803479,-24.798018,2.544371,-7.660808
704000,-1.201889,0.785298,8.853758,-23.576643,3.674142,-8.393633
708000,-1.120486,0.778116,8.899248,-21.775116,9.689409,-8.683709
712000,-1.438915,0.852336,8.214506,-21.393438,11.353531,-9.370732
716000,-1.984793,1.110910,8.121132,-23.851452,6.666509,-11.660809
720000,-2.236184,1.161188,8.078036,-25.759850,1.658875,-12.668442
724000,-2.743755,1.098939,8.164227,-26.584276,0.727577,-10.973785
728000,-3.057395,1.300052,8.190564,-26.782751,-0.371659,-9.019587
732000,-3.217807,1.510741,8.056489,-28.721684,-4.570133,-7.019587
736000,-3.145981,1.496376,8.166622,-30.126263,-3.623568,-3.782945
740000,-3.373430,1.505953,8.403648,-30.278934,-1.257156,0.843009
744000,-3.469198,1.611298,8.480263,-29.836185,-0.997614,5.484231
748000,-3.239355,1.788469,8.329428,-28.889622,-2.447995,9.438428
752000,-3.062184,1.958457,8.499416,-28.675880,-2.921278,13.392627
756000,-2.638410,2.147599,8.853758,-28.080460,-0.951812,16.843010
760000,-2.078167,2.557007,9.191340,-28.172062,2.895516,19.194155
764000,-1.752556,2.822764,9.394848,-27.851452,7.231394,20.507132
768000,-1.699883,3.179500,9.411607,-26.660612,11.139791,21.911713
772000,-1.505953,3.452439,9.730036,-25.714048,17.948952,23.316292
776000,-1.798046,3.811569,9.315839,-23.439240,16.513836,23.667437
780000,-1.956063,3.948039,9.155427,-22.049927,12.498569,24.049116
784000,-1.889025,3.964798,9.090784,-19.576643,12.330630,25.087284
788000,-2.324770,4.173094,8.676587,-18.538475,8.116890,26.033850
792000,-2.597709,4.551377,8.676587,-19.027025,0.758111,27.331558
796000,-2.085350,4.625597,8.801085,-18.263666,1.964218,31.713238
800000,-1.833959,4.838682,8.738836,-17.515575,2.086356,34.354462
804000,-1.070208,5.252879,8.707711,-15.912522,1.826814,36.003315
808000,0.038307,5.248090,8.623915,-13.133897,5.368799,37.865910
812000,0.960075,5.358223,8.504205,-10.126263,12.773378,37.392628
816000,1.362301,5.504270,8.090008,-7.576645,17.475668,35.117817
820000,1.508347,5.614403,7.551312,-6.691149,17.674141,31.178886
824000,1.663970,5.561730,7.237672,-5.561378,18.819180,27.728506
828000,1.623269,5.528212,6.912060,-4.920156,19.475668,24.110186
832000,1.412579,5.509058,6.725313,-4.278934,19.170324,20.644537
836000,1.201889,5.430049,6.713342,-5.240767,17.613073,17.591101
840000,0.921768,5.360618,6.732495,-5.790385,18.040554,15.591100
844000,0.725443,5.394136,6.696582,-6.767485,19.170324,13.560566
848000,0.481235,5.212177,6.670246,-7.714049,19.735210,12.384994
852000,0.347159,4.970363,6.555324,-8.584278,20.620707,11.667436
856000,0.347159,4.675876,6.677429,-8.874354,21.063456,11.087283
860000,0.536301,4.462792,6.897695,-9.439240,23.796280,10.278123
864000,0.548272,4.438850,7.031770,-10.080462,26.681776,9.285756
868000,0.521936,4.235343,7.400477,-9.851454,28.620707,8.384994
872000,0.330400,3.897760,7.328651,-9.194965,30.239027,7.453696
876000,0.177171,3.581726,7.359776,-9.652981,31.032921,6.507131
880000,-0.079009,3.404555,7.544129,-10.736950,30.559637,5.423162
884000,0.050278,3.047819,7.747637,-12.416339,30.697042,3.942245
888000,-0.107739,2.782062,8.001422,-13.530843,31.399332,2.736139
892000,-0.502782,2.430115,8.142680,-13.622445,30.574905,1.697971
896000,-1.106121,2.367866,8.068460,-17.072826,21.032921,-1.263861
900000,-0.663194,2.190695,8.961497,-18.416338,24.010019,-1.584472
904000,-0.804452,1.651999,8.966286,-14.675881,33.017654,0.507131
908000,-1.000776,1.644817,9.045294,-15.042293,35.613071,0.873543
912000,-0.842759,1.534683,9.050082,-15.927789,35.658875,-0.027220
916000,-0.763750,1.027112,9.562442,-14.538476,36.452766,-0.363098
920000,-0.773327,0.782904,9.521740,-10.981225,35.063454,-1.599739
924000,-0.924162,0.873884,9.514558,-10.996491,31.597805,-4.027220
928000,-0.998382,0.615310,9.598354,-10.278934,29.552004,-5.859281
932000,-1.201889,0.122104,9.811439,-8.141530,27.536737,-7.401266
936000,-1.532289,0.047884,9.651027,-4.767485,26.926050,-8.363098
940000,-1.836353,0.090980,9.593566,-3.927789,22.239027,-10.454701
944000,-1.939303,-0.047884,9.739613,-3.027026,16.437500,-12.592106
948000,-1.831564,-0.158017,10.060435,-0.431606,15.246661,-13.523404
952000,-2.106898,-0.237026,9.787497,1.186714,12.666508,-14.927984
956000,-2.339135,-0.124498,9.773131,0.835569,10.483302,-16.897449
960000,-3.004723,-0.397437,9.696517,1.537859,8.849714,-15.905083
964000,-3.318364,-0.418985,9.773131,3.018775,3.872615,-14.866915
968000,-3.406949,-0.438139,9.928755,4.774501,4.116890,-12.347831
972000,-3.574543,-0.435745,9.737218,6.530226,1.322997,-10.622641
976000,-3.526659,-0.646434,9.634268,8.102745,0.132157,-8.408899
980000,-3.347094,-0.639252,9.385271,9.201982,0.956585,-6.393632
984000,-3.450045,-0.588974,9.064447,8.621829,1.200860,-4.760045
988000,-3.421314,-0.553061,9.071630,7.889005,0.666508,-2.882182
992000,-3.481169,-0.579397,9.052477,7.125646,-3.089217,-1.996686
996000,-3.502717,-0.474052,8.980651,6.255417,-4.967079,-0.531037
1000000,-3.500323,-0.509965,8.825027,5.079844,-6.570133,0.934612
1004000,-3.363853,-0.423774,8.609550,4.056943,-7.333491,2.583467
1008000,-2.968810,-0.536301,8.597578,3.369921,-8.600668,4.110185
1012000,-2.296039,-0.656011,8.599973,3.873737,-9.531965,4.262856
1016000,-1.927332,-0.723049,8.410830,4.056943,-11.883110,2.980413
1020000,-1.850718,-0.735020,8.303091,3.675264,-15.226622,1.514765
1024000,-2.166753,-0.737414,8.135497,3.400455,-21.364027,-0.317297
1028000,-2.149993,-0.612916,8.231265,2.285951,-25.455629,-1.401266
1032000,-2.209848,-0.787692,8.169016,2.530226,-28.005247,-2.011953
1036000,-2.281674,-0.818817,8.164227,1.430989,-28.646469,-1.630274
1040000,-2.398990,-0.893037,8.171411,0.133279,-29.928911,-1.065388
1044000,-2.387019,-0.885855,8.358158,-0.782751,-29.073950,0.140719
1048000,-2.549825,-0.964863,8.389283,-1.057560,-29.654102,1.377360
1052000,-2.494758,-0.854730,8.487445,-2.278934,-32.386925,2.293390
1056000,-2.501941,-0.818817,8.650250,-2.798018,-33.608299,3.972780
1060000,-2.365471,-0.950498,8.626308,-2.630080,-34.264790,5.453696
1064000,-2.226608,-0.842759,8.643068,-2.034660,-32.371658,7.331559
1068000,-2.219425,-0.852336,8.461109,-2.569010,-33.791508,8.949879
1072000,-2.164358,-0.756568,8.520964,-3.469774,-35.501431,9.926978
1076000,-1.824382,-0.682347,8.906430,-2.156797,-34.738071,11.499497
1080000,-1.618480,-0.651223,8.817844,-1.057560,-34.188454,12.614001
1084000,-1.405396,-0.627281,8.884883,0.545493,-31.944180,13.392627
1088000,-1.314417,-0.622492,8.678981,1.079844,-33.012882,13.468963
1092000,-0.981623,-0.591368,8.477868,0.774501,-34.020515,13.499497
1096000,-0.265756,-0.598550,8.559271,1.476791,-29.883110,12.384994
1100000,0.011971,-0.486023,8.568848,1.125646,-24.570133,10.079650
1104000,0.090980,-0.373495,8.676587,1.049310,-22.127384,7.087284
1108000,-0.007183,-0.514753,8.669404,2.270684,-21.104485,4.766673
1112000,-0.114922,-0.526724,8.506598,2.911905,-22.371660,2.522398
1116000,-0.184354,-0.495600,8.647857,3.110379,-24.509064,0.415528
1120000,0.031125,-0.579397,9.162610,3.553127,-22.051048,-0.958518
1124000,-0.193930,-0.739808,9.488221,5.553127,-17.043415,-1.553938
1128000,-0.402226,-0.802058,9.232041,7.293585,-13.593034,-1.447067
1132000,-0.809240,-0.675165,9.057265,5.965341,-12.585401,-2.103556
1136000,-0.861913,-0.821211,9.071630,6.774501,-8.661736,-1.019587
1140000,-1.110910,-0.814029,8.738836,6.530226,-7.043415,-0.210426
1144000,-1.086968,-0.732626,8.760384,5.415722,-4.722805,0.827742
1148000,-1.142034,-0.665588,8.836999,4.820302,-2.142652,2.323925
1152000,-1.170765,-0.737414,8.765172,4.957707,-1.425095,3.362093
1156000,-1.163582,-0.708684,8.664616,5.705799,-0.661736,4.125452
1160000,-1.388637,-0.670376,8.559271,6.316485,-1.593034,5.239955
1164000,-1.527501,-0.569820,8.403648,6.102745,-5.073949,5.484231
1168000,-1.350330,-0.699107,8.540117,6.423356,-4.997613,6.949879
1172000,-1.467646,-0.737414,8.614338,7.095111,-8.203721,7.835375
1176000,-1.271321,-0.742203,9.121908,8.285952,-9.760973,8.583467
1180000,-0.787692,-0.588974,9.521740,10.148546,-7.394560,8.995680
1184000,-0.701501,-0.481235,9.576807,12.194347,-4.371659,8.965146
1188000,-0.620098,-0.490811,9.469068,13.629462,-1.348759,8.965146
1192000,-0.605733,-0.354342,9.232041,14.377554,2.162692,8.827742
1196000,-0.610521,-0.299275,8.990228,14.576027,5.139791,8.675070
1200000,-0.646434,-0.227449,8.839393,14.805035,7.063455,8.140718
1204000,-0.550666,-0.119710,8.813056,15.263050,8.620707,7.667436
1208000,-0.699107,-0.057461,8.489840,15.201982,7.246661,6.491864
1212000,-0.256180,-0.117316,8.441956,16.362288,10.483302,6.339192
1216000,-0.603339,-0.098162,7.824251,14.621829,9.719943,5.072017
1220000,-0.610521,-0.033519,7.833828,14.621829,13.002386,4.507131
1224000,-0.840365,0.038307,7.572860,12.591294,12.620707,3.926979
1228000,-0.916979,-0.004788,7.436390,11.247784,10.849714,3.484231
1232000,-0.773327,-0.031125,7.515399,9.446257,8.712310,2.629268
1236000,-0.701501,0.074220,7.805098,7.995874,9.063455,1.331558
1240000,-0.826000,0.095768,7.934384,7.095111,8.803913,0.384994
1244000,-1.115698,0.074220,7.941567,6.285951,7.781012,-0.469968
1248000,-1.340753,0.043096,7.841011,5.339386,6.254295,-0.469968
1252000,-1.347936,0.031125,7.716512,3.812669,5.460402,-0.424167
1256000,-1.309628,0.069432,7.671022,1.843203,5.353531,0.217055
1260000,-1.374272,0.052672,7.673417,-0.553744,4.941318,0.323925
1264000,-1.278504,-0.007183,7.687782,-1.439240,4.284829,0.354459
1268000,-1.323994,-0.081403,7.742848,-1.927789,4.559639,0.278123
1272000,-1.297657,-0.155623,7.694964,-2.920156,5.597806,0.537665
1276000,-1.304840,-0.083797,7.900866,-5.194965,6.132157,0.736139
1280000,-1.460463,-0.172383,8.209718,-7.011759,6.605440,0.934612
1284000,-1.577779,-0.335188,8.446744,-7.393438,7.002387,1.514765
1288000,-1.833959,-0.260968,8.571242,-7.576645,6.651241,2.278123
1292000,-1.946486,-0.399832,8.774749,-8.034659,5.506203,3.285757
1296000,-1.994370,-0.462081,8.769960,-8.019393,4.010020,4.873543
1300000,-2.066196,-0.493206,8.736442,-8.141530,3.429867,6.384994
1304000,-2.087744,-0.557849,8.808268,-8.462141,1.887883,7.881176
1308000,-1.771709,-0.452504,8.904037,-8.996491,2.086356,9.346826
1312000,-1.460463,-0.476446,9.193734,-8.172065,3.246661,10.186520
1316000,-1.252167,-0.430956,9.356541,-6.736950,3.994753,10.415527
1320000,-1.180341,-0.356736,9.246407,-5.011759,5.002387,10.507131
1324000,-1.177947,-0.344765,9.165004,-3.607178,5.704677,10.430795
1328000,-1.151611,-0.241814,9.018958,-2.843820,5.994753,10.736138
1332000,-0.981623,-0.241814,8.911219,-2.630080,5.781013,10.384994
1336000,-0.737414,-0.174777,9.057265,-1.866720,7.536737,9.881176
1340000,-0.684742,-0.153229,9.076419,-0.248400,9.384066,9.117818
1344000,-0.600945,-0.031125,8.954314,0.896638,11.063455,8.323924
1348000,-0.644040,0.014365,8.856153,0.957707,13.750478,7.911711
1352000,-0.732626,0.040701,8.671799,1.247783,15.979485,7.239955
1356000,-0.758962,-0.074220,8.604761,1.889004,18.330629,7.514764
1360000,-0.806846,-0.045490,8.303091,2.118012,19.048187,7.056749
1364000,-0.744597,-0.021548,8.348581,1.232516,18.956585,6.079650
1368000,-0.706290,0.043096,8.353370,0.621829,18.803913,4.904078
1372000,-0.902614,0.086191,8.334216,0.545493,17.231394,3.636902
1376000,-1.060631,0.098162,8.214506,0.377554,16.742844,3.301024
1380000,-1.268927,0.177171,8.128315,-0.294202,16.040554,2.888810
1384000,-1.323994,0.114922,8.013393,-0.874354,15.093989,2.980413
1388000,-1.259350,-0.114922,7.841011,-0.691148,15.353531,3.148352
1392000,-1.163582,-0.172383,7.690176,-1.194965,15.536737,3.026215
1396000,-1.233014,-0.181959,7.589619,-3.133896,14.116890,2.583467
1400000,-1.328782,-0.270545,7.833828,-4.889622,10.635974,1.484230
1404000,-1.572991,-0.387861,8.147469,-5.439240,7.063455,0.797207
1408000,-1.558625,-0.500388,8.482656,-5.332370,4.101623,0.369726
1412000,-1.697489,-0.639252,8.626308,-5.393438,1.658875,0.079650
1416000,-1.956063,-0.639252,8.892065,-4.675881,1.002386,0.705604
1420000,-1.917756,-0.715866,8.978256,-3.194965,2.116890,1.804841
1424000,-2.051831,-0.766145,9.153033,-1.759850,4.132157,3.560566
1428000,-1.987187,-0.672771,8.937555,-2.141530,6.330631,4.781940
1432000,-1.853112,-0.581791,8.956709,-2.996492,8.559638,6.186521
1436000,-1.845930,-0.514753,9.040505,-2.675881,10.116890,7.087284
1440000,-1.769315,-0.459687,9.076419,-1.088094,10.620707,7.759039
1444000,-1.668759,-0.270545,8.980651,0.224882,10.956584,8.720871
1448000,-1.668759,-0.244209,8.738836,0.331753,12.971851,9.575833
1452000,-1.651999,-0.229843,8.537724,0.698165,15.002386,10.659802
1456000,-1.527501,-0.191536,8.286332,0.102745,15.170325,11.209421
1460000,-0.804452,-0.308852,8.298303,1.675264,18.987120,12.125451
1464000,-1.173159,-0.095768,8.250419,-0.492675,14.941318,9.331558
1468000,-0.857124,0.057461,8.425196,1.247783,16.010019,7.346826
1472000,-0.969652,0.079009,8.087613,1.278317,12.635974,5.484231
1476000,-1.108515,0.050278,8.101978,1.568394,8.345898,3.468963
1480000,-1.412579,0.062249,8.042124,0.576027,3.368799,1.652169
1484000,-1.340753,-0.114922,8.001422,0.667630,0.742844,1.087284
1488000,-1.568202,-0.203507,7.836222,-0.370538,-1.974713,0.919345
1492000,-1.489193,-0.119710,7.694964,-3.118629,-3.196087,0.690337
1496000,-1.383849,-0.227449,7.984663,-5.530843,-3.241888,0.110184
1500000,-1.426944,-0.129287,8.171411,-6.965958,-2.218988,0.018581
1504000,-1.450886,-0.193930,8.259995,-7.622446,-1.944179,-0.118823
1508000,-1.517924,-0.110133,8.324639,-7.881988,-3.241888,-0.332564
1512000,-1.355118,-0.227449,8.350976,-7.805653,-4.967079,-1.065388
1516000,-1.362301,-0.304064,8.485051,-7.851454,-5.470896,-1.569205
1520000,-1.484405,-0.196325,8.664616,-7.927790,-5.562499,-2.210426
1524000,-1.482011,-0.277727,8.798691,-7.469774,-5.654102,-2.317297
1528000,-1.508347,-0.234632,8.765172,-6.584278,-5.715171,-2.149358
1532000,-1.527501,-0.229843,8.702923,-6.156797,-6.051049,-2.042487
1536000,-1.541866,-0.246603,8.688558,-5.683515,-6.096850,-1.828747
1540000,-1.620875,-0.213084,8.731653,-5.805653,-6.325858,-1.584472
1544000,-1.556231,-0.289698,8.547300,-5.897255,-7.135018,-1.844014
1548000,-1.446098,-0.287304,8.537724,-5.973591,-8.478530,-1.660808
1552000,-1.424550,-0.294487,8.724471,-5.927790,-9.135018,-2.073022
1556000,-1.455675,-0.339977,8.805874,-5.500309,-9.608301,-1.966151
1560000,-1.391031,-0.313640,8.832211,-4.523210,-9.211354,-1.737144
1564000,-1.498770,-0.335188,8.743625,-4.172065,-8.081583,-1.782945
1568000,-1.484405,-0.347159,8.657434,-4.385805,-7.883110,-1.782945
1572000,-1.522712,-0.430956,8.734048,-4.446874,-8.218987,-1.569205
1576000,-1.450886,-0.495600,8.688558,-3.866720,-8.310591,-1.737144
1580000,-1.398214,-0.421380,8.765172,-3.912522,-9.715171,-1.935617
1584000,-1.240196,-0.474052,8.916007,-3.790385,-10.860209,-2.775312
1588000,-1.149217,-0.572214,9.148245,-3.011759,-10.295324,-3.416533
1592000,-1.266533,-0.555455,9.193734,-1.011759,-9.348759,-4.134090
1596000,-1.364695,-0.560243,9.045294,0.911905,-8.707538,-4.256228
1600000,-1.393425,-0.507571,9.176975,3.034043,-3.058682,-2.943251
1604000,-1.968034,-0.483629,8.585608,3.766867,-5.226621,-2.500503
1608000,-2.013524,-0.349553,8.585608,0.163814,-7.196087,-2.134090
1612000,-1.651999,-0.464475,8.422802,1.003508,-5.150285,-0.057755
1616000,-1.541866,-0.402226,8.257602,1.339386,-4.020514,0.537665
1620000,-1.163582,-0.308852,8.200141,0.789768,-3.180820,0.812474
1624000,-1.034295,-0.330400,8.295909,0.301218,-3.226621,0.232322
1628000,-1.036689,-0.311246,8.394072,0.347020,-4.112117,-0.775312
1632000,-1.168370,-0.227449,8.398860,0.377554,-4.615934,-1.034854
1636000,-1.177947,-0.222661,8.298303,-0.507942,-5.684637,-1.782945
1640000,-1.199495,-0.284910,8.322245,-0.752217,-5.913644,-1.889816
1644000,-1.290475,-0.241814,8.248025,-1.637713,-5.516697,-1.737144
1648000,-1.302446,-0.270545,8.341399,-2.736950,-6.127385,-2.317297
1652000,-1.256956,-0.325611,8.635885,-2.752217,-6.463263,-2.515770
1656000,-1.233014,-0.418985,8.803479,-2.019392,-5.302957,-2.943251
1660000,-1.304840,-0.316035,8.848969,-1.301835,-4.600667,-3.080655
1664000,-1.412579,-0.265756,8.743625,-0.981224,-4.722805,-3.355464
1668000,-1.572991,-0.371101,8.741230,-1.118629,-5.073949,-3.172258
1672000,-1.426944,-0.490811,8.750807,-0.523209,-3.944179,-2.683709
1676000,-1.412579,-0.442927,8.659827,-0.126262,-2.677003,-2.515770
1680000,-1.419762,-0.426168,8.657434,-0.584278,-2.325858,-2.561571
1684000,-1.453280,-0.474052,8.604761,0.026409,-1.959446,-2.576838
1688000,-1.647211,-0.435745,8.568848,0.331753,-1.440362,-2.240961
1692000,-1.613692,-0.423774,8.647857,0.453890,-1.089217,-1.706609
1696000,-1.352724,-0.538695,8.664616,1.095111,0.590173,-0.973785
1700000,-1.252167,-0.514753,8.894460,1.751600,3.506203,-0.821113
1704000,-1.194707,-0.531513,8.870518,2.713432,5.124524,-1.065388
1708000,-1.244985,-0.557849,8.829816,3.782134,5.353531,-1.676075
1712000,-1.417367,-0.600945,8.726865,4.728699,4.544371,-1.981419
1716000,-1.618480,-0.466869,8.487445,4.881371,2.880249,-2.317297
1720000,-1.805228,-0.486023,8.520964,4.545493,0.529104,-2.164625
1724000,-1.896208,-0.478840,8.437167,4.377554,-0.890743,-1.691342
1728000,-1.867477,-0.359130,8.415619,3.843203,-1.730438,-0.622640
1732000,-1.740585,-0.339977,8.312668,3.415722,-0.615934,0.278123
1736000,-1.544260,-0.136469,8.190564,2.255417,0.681776,1.117818
1740000,-1.357512,-0.153229,8.298303,1.461524,2.712310,1.652169
1744000,-1.252167,-0.021548,8.109161,0.759233,5.277195,1.881177
1748000,-1.273715,-0.028730,7.900866,-0.492675,6.620707,1.957513
1752000,-1.278504,-0.038307,7.692570,-1.485041,6.544371,2.033848
1756000,-1.240196,-0.016759,7.642292,-3.225499,6.300097,1.530032
1760000,-1.218649,-0.064643,7.845799,-4.523210,5.338264,1.209421
1764000,-1.156399,-0.136469,8.015787,-4.874354,3.857348,0.186520
1768000,-1.242591,-0.275333,8.003817,-5.286569,2.040554,-0.714243
1772000,-1.347936,-0.311246,8.248025,-5.256034,0.071089,-1.370732
1776000,-1.510741,-0.363919,8.504205,-5.469774,-1.409827,-1.813480
1780000,-1.740585,-0.459687,8.528147,-5.301835,-2.707537,-2.011953
1784000,-1.786075,-0.490811,8.444349,-5.469774,-3.959446,-1.462335
1788000,-1.889025,-0.507571,8.583213,-5.698782,-4.417461,-0.790579
1792000,-1.793257,-0.588974,8.592790,-5.668247,-4.173186,0.064383
1796000,-1.673547,-0.572214,8.571242,-5.820919,-3.501430,0.736139
1800000,-1.580173,-0.567426,8.578424,-6.370538,-3.165553,1.148352
1804000,-1.508347,-0.612916,8.810662,-6.416339,-3.028148,1.010948
1808000,-1.563414,-0.679953,9.016563,-5.347637,-2.157919,1.163620
1812000,-1.587356,-0.639252,8.925584,-4.721683,-0.814408,1.545299
1816000,-1.656788,-0.588974,8.884883,-4.843820,0.177959,1.881177
1820000,-1.731008,-0.617704,8.904037,-5.149163,0.864982,2.537665
1824000,-1.771709,-0.579397,8.942344,-4.874354,1.735211,2.934612
1828000,-1.551443,-0.658405,8.961497,-4.401072,2.651241,3.682703
1832000,-1.422156,-0.620098,8.817844,-3.546110,3.200860,3.713238
1836000,-1.197101,-0.588974,8.894460,-3.011759,3.781013,3.102551
1840000,-1.098939,-0.567426,8.951921,-1.836186,4.162692,2.507131
1844000,-1.122881,-0.608127,8.949526,-0.721682,4.727577,1.789574
1848000,-1.266533,-0.553061,8.880095,0.988241,4.834447,1.087284
1852000,-1.412579,-0.543484,8.676587,1.476791,3.643608,1.346826
1856000,-1.482011,-0.483629,8.530540,1.537859,3.307730,1.133085
1860000,-1.431733,-0.426168,8.549694,0.972974,3.536737,1.484230
1864000,-1.395820,-0.378284,8.408437,0.285951,3.445134,1.850642
1868000,-1.374272,-0.251391,8.461109,0.148546,3.689409,1.926978
1872000,-1.309628,-0.253785,8.362947,-0.401072,3.765745,2.308658
1876000,-1.182736,-0.191536,8.360553,-0.217866,3.689409,1.728505
1880000,-1.209072,-0.172383,8.389283,-1.088094,3.582539,1.575833
1884000,-1.233014,-0.150835,8.248025,-1.851454,3.231394,1.239955
1888000,-1.292869,-0.143652,8.377312,-2.462140,2.681776,0.843009
1892000,-1.235408,-0.148441,8.367735,-2.889621,2.101623,0.980413
1896000,-1.154005,-0.237026,8.415619,-2.294202,1.918417,0.873543
1900000,-1.077391,-0.213084,8.516175,-2.019392,2.941318,0.537665
1904000,-1.065420,-0.337582,8.432379,-2.233133,3.658875,0.155986
1908000,-1.213860,-0.354342,8.588001,-2.278934,3.506203,-0.500503
1912000,-1.395820,-0.426168,8.482656,-2.828552,2.193226,-0.714243
1916000,-1.551443,-0.495600,8.698134,-2.492675,0.926050,-0.851648
1920000,-1.699883,-0.514753,8.707711,-2.416339,-0.295324,-0.775312
1924000,-1.659182,-0.579397,8.825027,-2.324736,-0.005247,-0.149358
1928000,-1.733402,-0.620098,8.966286,-1.912522,1.338264,0.949879
1932000,-1.819593,-0.622492,8.995016,-1.805652,2.391699,1.881177
1936000,-1.731008,-0.586579,8.949526,-1.698782,3.872615,3.102551
1940000,-1.671153,-0.629675,8.949526,-1.637713,5.216127,3.682703
1944000,-1.628057,-0.569820,8.865729,-1.042293,6.055821,4.339192
1948000,-1.637634,-0.521936,8.724471,-0.263667,5.933684,4.369727
1952000,-1.625663,-0.567426,8.667010,0.331753,4.773379,4.110185
1956000,-1.690306,-0.538695,8.674192,1.232516,3.918417,4.293391
1960000,-1.759738,-0.466869,8.497022,1.736333,2.666508,4.339192
1964000,-1.721431,-0.373495,8.643068,2.255417,1.460402,4.323925
1968000,-1.683124,-0.347159,8.559271,2.255417,-0.112117,4.384994
1972000,-1.589750,-0.313640,8.425196,2.484425,-1.272423,4.308658
1976000,-1.467646,-0.270545,8.384495,2.056943,-1.806774,4.400261
1980000,-1.278504,-0.248997,8.319851,1.675264,-2.386927,4.110185
1984000,-1.225831,-0.129287,8.171411,0.835569,-2.478530,3.575833
1988000,-1.091756,-0.146046,8.066066,0.163814,-2.020514,3.178887
1992000,-0.974440,-0.138864,8.176199,-0.431606,-1.822041,1.835375
1996000,-1.034295,-0.031125,8.166622,-0.935423,-1.501431,1.194154
